{
  "resourceType": "Bundle",
  "meta": {
    "profile": [ "https://www.netzwerk-universitaetsmedizin.de/fhir/StructureDefinition/gecco-bundle" ]
  },
  "type": "transaction",
  "entry": [ {
    "fullUrl": "Patient/debc4b76df75a6a49a868d38d812ab4dcd2cf9c135339c35fa1ab482a467b948",
    "resource": {
      "resourceType": "Patient",
      "meta": {
        "profile": [ "https://www.netzwerk-universitaetsmedizin.de/fhir/StructureDefinition/Patient" ]
      },
      "extension": [ {
        "url": "https://www.netzwerk-universitaetsmedizin.de/fhir/StructureDefinition/age",
        "extension": [ {
          "url": "dateTimeOfDocumentation",
          "_valueDateTime": {
            "extension": [ {
              "url": "http://hl7.org/fhir/StructureDefinition/data-absent-reason",
              "valueCode": "unknown"
            } ]
          }
        }, {
          "url": "age",
          "valueAge": {
            "value": 68,
            "unit": "years",
            "system": "http://unitsofmeasure.org",
            "code": "a"
          }
        } ]
      }, {
        "url": "https://www.netzwerk-universitaetsmedizin.de/fhir/StructureDefinition/ethnic-group",
        "valueCoding": {
          "system": "http://snomed.info/sct",
          "code": "186019001"
        }
      } ],
      "identifier": [ {
        "type": {
          "coding": [ {
            "system": "http://terminology.hl7.org/CodeSystem/v2-0203",
            "code": "MR"
          } ]
        },
        "system": "https://mein.krankenhaus.de/fhir/NamingSystem/patientId",
        "value": "synthetic_patient_546669175",
        "assigner": {
          "reference": "Organization/3a4f3433bce81181bad2d8e0b8fafccf7dc800bc06f29be73dcb38b750a48f9a"
        }
      } ],
      "birthDate": "1951-09-16"
    },
    "request": {
      "method": "POST",
      "url": "Patient",
      "ifNoneExist": "identifier=https://mein.krankenhaus.de/fhir/NamingSystem/patientId|debc4b76df75a6a49a868d38d812ab4dcd2cf9c135339c35fa1ab482a467b948"
    }
  }, {
    "fullUrl": "Organization/3a4f3433bce81181bad2d8e0b8fafccf7dc800bc06f29be73dcb38b750a48f9a",
    "resource": {
      "resourceType": "Organization",
      "name": "Mein Krankenhaus"
    },
    "request": {
      "method": "POST",
      "url": "Organization",
      "ifNoneExist": "identifier=null|3a4f3433bce81181bad2d8e0b8fafccf7dc800bc06f29be73dcb38b750a48f9a"
    }
  }, {
    "fullUrl": "Encounter/47fc088525418d0924dce79fa81a62046f09a53da06f32615b920d159114a675",
    "resource": {
      "resourceType": "Encounter",
      "identifier": [ {
        "system": "https://mein.krankenhaus.de/fhir/NamingSystem/encounterId",
        "value": "c7135abf381fdda5b928d3afd8f5b3f4ca8c26d9fc482f7728e2a1d92ce485c0",
        "assigner": {
          "reference": "Organization/3a4f3433bce81181bad2d8e0b8fafccf7dc800bc06f29be73dcb38b750a48f9a"
        }
      } ],
      "status": "unknown",
      "class": {
        "system": "http://terminology.hl7.org/CodeSystem/v3-ActCode",
        "code": "IMP",
        "display": "inpatient encounter"
      },
      "subject": {
        "reference": "Patient/debc4b76df75a6a49a868d38d812ab4dcd2cf9c135339c35fa1ab482a467b948"
      }
    },
    "request": {
      "method": "POST",
      "url": "Encounter",
      "ifNoneExist": "identifier=https://mein.krankenhaus.de/fhir/NamingSystem/encounterId|47fc088525418d0924dce79fa81a62046f09a53da06f32615b920d159114a675"
    }
  }, {
    "fullUrl": "Condition/9644ac9401f0e9a3f723a15c0ad9e6f9840c41653e47d9a839de2004adbd236d",
    "resource": {
      "resourceType": "Condition",
      "meta": {
        "profile": [ "https://www.netzwerk-universitaetsmedizin.de/fhir/StructureDefinition/diagnosis-covid-19" ]
      },
      "identifier": [ {
        "system": "https://mein.krankenhaus.de/fhir/NamingSystem/conditionId",
        "value": "cb7f2d81b1dd5ea2303ce6e188f54a00b99b9197170bdf2980ed0f56ad93286c"
      } ],
      "clinicalStatus": {
        "coding": [ {
          "system": "http://terminology.hl7.org/CodeSystem/condition-clinical",
          "code": "active",
          "display": "Active"
        } ]
      },
      "verificationStatus": {
        "coding": [ {
          "system": "http://terminology.hl7.org/CodeSystem/condition-ver-status",
          "code": "confirmed",
          "display": "Confirmed"
        }, {
          "system": "http://snomed.info/sct",
          "code": "410605003",
          "display": "Confirmed present (qualifier value)"
        } ]
      },
      "category": [ {
        "coding": [ {
          "system": "http://snomed.info/sct",
          "code": "394807007",
          "display": "Infectious diseases (specialty) (qualifier value)"
        } ]
      } ],
      "code": {
        "coding": [ {
          "system": "http://snomed.info/sct",
          "code": "840539006",
          "display": "Disease caused by Severe acute respiratory syndrome coronavirus 2 (disorder)"
        } ]
      },
      "subject": {
        "reference": "Patient/debc4b76df75a6a49a868d38d812ab4dcd2cf9c135339c35fa1ab482a467b948"
      },
      "encounter": {
        "reference": "Encounter/47fc088525418d0924dce79fa81a62046f09a53da06f32615b920d159114a675"
      },
      "_recordedDate": {
        "extension": [ {
          "url": "http://hl7.org/fhir/StructureDefinition/data-absent-reason",
          "valueCode": "unknown"
        } ]
      },
      "stage": [ {
        "summary": {
          "coding": [ {
            "system": "http://snomed.info/sct",
            "code": "261665006"
          } ]
        },
        "type": {
          "coding": [ {
            "system": "http://loinc.org",
            "code": "88859-4"
          } ]
        }
      } ]
    },
    "request": {
      "method": "POST",
      "url": "Condition",
      "ifNoneExist": "identifier=https://mein.krankenhaus.de/fhir/NamingSystem/conditionId|9644ac9401f0e9a3f723a15c0ad9e6f9840c41653e47d9a839de2004adbd236d"
    }
  }, {
    "fullUrl": "Condition/5fa5b2f7aa63745255a9263379b19469f8454e304c2354d3c3b4d12310695952",
    "resource": {
      "resourceType": "Condition",
      "meta": {
        "profile": [ "https://www.netzwerk-universitaetsmedizin.de/fhir/StructureDefinition/chronic-lung-diseases" ]
      },
      "identifier": [ {
        "system": "https://mein.krankenhaus.de/fhir/NamingSystem/conditionId",
        "value": "6af441e910f59b59b83d2e854a1f4e0b846df0d248390a2948b07261f7b532ec"
      } ],
      "verificationStatus": {
        "coding": [ {
          "system": "http://terminology.hl7.org/CodeSystem/condition-ver-status",
          "code": "refuted",
          "display": "Refuted"
        }, {
          "system": "http://snomed.info/sct",
          "code": "410594000",
          "display": "Definitely NOT present (qualifier value)"
        } ]
      },
      "category": [ {
        "coding": [ {
          "system": "http://snomed.info/sct",
          "code": "418112009",
          "display": "Pulmonary medicine (qualifier value)"
        } ]
      } ],
      "code": {
        "coding": [ {
          "system": "http://fhir.de/CodeSystem/dimdi/icd-10-gm",
          "version": "2021",
          "code": "J45.9"
        }, {
          "system": "http://snomed.info/sct",
          "code": "195967001"
        } ]
      },
      "subject": {
        "reference": "Patient/debc4b76df75a6a49a868d38d812ab4dcd2cf9c135339c35fa1ab482a467b948"
      },
      "encounter": {
        "reference": "Encounter/47fc088525418d0924dce79fa81a62046f09a53da06f32615b920d159114a675"
      },
      "_recordedDate": {
        "extension": [ {
          "url": "http://hl7.org/fhir/StructureDefinition/data-absent-reason",
          "valueCode": "unknown"
        } ]
      }
    },
    "request": {
      "method": "POST",
      "url": "Condition",
      "ifNoneExist": "identifier=https://mein.krankenhaus.de/fhir/NamingSystem/conditionId|5fa5b2f7aa63745255a9263379b19469f8454e304c2354d3c3b4d12310695952"
    }
  }, {
    "fullUrl": "Condition/9b251d8696b2567302d26d7777d6a4144dc24839a2ba26c6dd5e2f62b9b88cfc",
    "resource": {
      "resourceType": "Condition",
      "meta": {
        "profile": [ "https://www.netzwerk-universitaetsmedizin.de/fhir/StructureDefinition/chronic-lung-diseases" ]
      },
      "modifierExtension": [ {
        "url": "https://www.netzwerk-universitaetsmedizin.de/fhir/StructureDefinition/uncertainty-of-presence",
        "valueCodeableConcept": {
          "coding": [ {
            "system": "http://snomed.info/sct",
            "code": "261665006",
            "display": "Unknown (qualifier value)"
          } ],
          "text": "Presence unknown."
        }
      } ],
      "identifier": [ {
        "system": "https://mein.krankenhaus.de/fhir/NamingSystem/conditionId",
        "value": "6deaf5ec2f4a28122e19d3f6785e129d18ed8023570da4b82edf619bb821918f"
      } ],
      "category": [ {
        "coding": [ {
          "system": "http://snomed.info/sct",
          "code": "418112009",
          "display": "Pulmonary medicine (qualifier value)"
        } ]
      } ],
      "code": {
        "coding": [ {
          "system": "http://fhir.de/CodeSystem/dimdi/icd-10-gm",
          "version": "2021",
          "code": "J44.9"
        }, {
          "system": "http://snomed.info/sct",
          "code": "13645005"
        } ]
      },
      "subject": {
        "reference": "Patient/debc4b76df75a6a49a868d38d812ab4dcd2cf9c135339c35fa1ab482a467b948"
      },
      "encounter": {
        "reference": "Encounter/47fc088525418d0924dce79fa81a62046f09a53da06f32615b920d159114a675"
      },
      "_recordedDate": {
        "extension": [ {
          "url": "http://hl7.org/fhir/StructureDefinition/data-absent-reason",
          "valueCode": "unknown"
        } ]
      }
    },
    "request": {
      "method": "POST",
      "url": "Condition",
      "ifNoneExist": "identifier=https://mein.krankenhaus.de/fhir/NamingSystem/conditionId|9b251d8696b2567302d26d7777d6a4144dc24839a2ba26c6dd5e2f62b9b88cfc"
    }
  }, {
    "fullUrl": "Condition/24253d68941c3548dbb1d6b674fc1af2e06002581a559aa7ca123ff0a3408cbf",
    "resource": {
      "resourceType": "Condition",
      "meta": {
        "profile": [ "https://www.netzwerk-universitaetsmedizin.de/fhir/StructureDefinition/chronic-lung-diseases" ]
      },
      "identifier": [ {
        "system": "https://mein.krankenhaus.de/fhir/NamingSystem/conditionId",
        "value": "e84a28368078f0165889de4a2229461273c29747c4d4f294aa720d6fd3b9fb14"
      } ],
      "clinicalStatus": {
        "coding": [ {
          "system": "http://terminology.hl7.org/CodeSystem/condition-clinical",
          "code": "active",
          "display": "Active"
        } ]
      },
      "verificationStatus": {
        "coding": [ {
          "system": "http://terminology.hl7.org/CodeSystem/condition-ver-status",
          "code": "confirmed",
          "display": "Confirmed"
        }, {
          "system": "http://snomed.info/sct",
          "code": "410605003",
          "display": "Confirmed present (qualifier value)"
        } ]
      },
      "category": [ {
        "coding": [ {
          "system": "http://snomed.info/sct",
          "code": "418112009",
          "display": "Pulmonary medicine (qualifier value)"
        } ]
      } ],
      "code": {
        "coding": [ {
          "system": "http://fhir.de/CodeSystem/dimdi/icd-10-gm",
          "version": "2021",
          "code": "J84.1"
        }, {
          "system": "http://snomed.info/sct",
          "code": "51615001"
        } ]
      },
      "subject": {
        "reference": "Patient/debc4b76df75a6a49a868d38d812ab4dcd2cf9c135339c35fa1ab482a467b948"
      },
      "encounter": {
        "reference": "Encounter/47fc088525418d0924dce79fa81a62046f09a53da06f32615b920d159114a675"
      },
      "_recordedDate": {
        "extension": [ {
          "url": "http://hl7.org/fhir/StructureDefinition/data-absent-reason",
          "valueCode": "unknown"
        } ]
      }
    },
    "request": {
      "method": "POST",
      "url": "Condition",
      "ifNoneExist": "identifier=https://mein.krankenhaus.de/fhir/NamingSystem/conditionId|24253d68941c3548dbb1d6b674fc1af2e06002581a559aa7ca123ff0a3408cbf"
    }
  }, {
    "fullUrl": "Condition/7cb66a1b7e5c91ff5626afe1c78c708d5d79011e583462fa645e31e51eb9ace0",
    "resource": {
      "resourceType": "Condition",
      "meta": {
        "profile": [ "https://www.netzwerk-universitaetsmedizin.de/fhir/StructureDefinition/chronic-lung-diseases" ]
      },
      "identifier": [ {
        "system": "https://mein.krankenhaus.de/fhir/NamingSystem/conditionId",
        "value": "015ded1a562e5bde2901ee13bf992ce056b9b5abf9938b1c4eff014abc9261b4"
      } ],
      "clinicalStatus": {
        "coding": [ {
          "system": "http://terminology.hl7.org/CodeSystem/condition-clinical",
          "code": "active",
          "display": "Active"
        } ]
      },
      "verificationStatus": {
        "coding": [ {
          "system": "http://terminology.hl7.org/CodeSystem/condition-ver-status",
          "code": "confirmed",
          "display": "Confirmed"
        }, {
          "system": "http://snomed.info/sct",
          "code": "410605003",
          "display": "Confirmed present (qualifier value)"
        } ]
      },
      "category": [ {
        "coding": [ {
          "system": "http://snomed.info/sct",
          "code": "418112009",
          "display": "Pulmonary medicine (qualifier value)"
        } ]
      } ],
      "code": {
        "coding": [ {
          "system": "http://fhir.de/CodeSystem/dimdi/icd-10-gm",
          "version": "2021",
          "code": "I27.0"
        }, {
          "system": "http://snomed.info/sct",
          "code": "70995007"
        } ]
      },
      "subject": {
        "reference": "Patient/debc4b76df75a6a49a868d38d812ab4dcd2cf9c135339c35fa1ab482a467b948"
      },
      "encounter": {
        "reference": "Encounter/47fc088525418d0924dce79fa81a62046f09a53da06f32615b920d159114a675"
      },
      "_recordedDate": {
        "extension": [ {
          "url": "http://hl7.org/fhir/StructureDefinition/data-absent-reason",
          "valueCode": "unknown"
        } ]
      }
    },
    "request": {
      "method": "POST",
      "url": "Condition",
      "ifNoneExist": "identifier=https://mein.krankenhaus.de/fhir/NamingSystem/conditionId|7cb66a1b7e5c91ff5626afe1c78c708d5d79011e583462fa645e31e51eb9ace0"
    }
  }, {
    "fullUrl": "Condition/04c177bebf6522cadea376d04a153c6ca1ae0915728f70db45907a3d5678d7b9",
    "resource": {
      "resourceType": "Condition",
      "meta": {
        "profile": [ "https://www.netzwerk-universitaetsmedizin.de/fhir/StructureDefinition/chronic-lung-diseases" ]
      },
      "identifier": [ {
        "system": "https://mein.krankenhaus.de/fhir/NamingSystem/conditionId",
        "value": "70f2b948a1a70b17ade0652411dc3cd6bbbc06dfdf064f2b81c205a5ffa8dc1c"
      } ],
      "clinicalStatus": {
        "coding": [ {
          "system": "http://terminology.hl7.org/CodeSystem/condition-clinical",
          "code": "active",
          "display": "Active"
        } ]
      },
      "verificationStatus": {
        "coding": [ {
          "system": "http://terminology.hl7.org/CodeSystem/condition-ver-status",
          "code": "confirmed",
          "display": "Confirmed"
        }, {
          "system": "http://snomed.info/sct",
          "code": "410605003",
          "display": "Confirmed present (qualifier value)"
        } ]
      },
      "category": [ {
        "coding": [ {
          "system": "http://snomed.info/sct",
          "code": "418112009",
          "display": "Pulmonary medicine (qualifier value)"
        } ]
      } ],
      "code": {
        "coding": [ {
          "system": "http://fhir.de/CodeSystem/dimdi/icd-10-gm",
          "version": "2021",
          "code": "E66.29"
        }, {
          "system": "http://snomed.info/sct",
          "code": "190966007"
        } ]
      },
      "subject": {
        "reference": "Patient/debc4b76df75a6a49a868d38d812ab4dcd2cf9c135339c35fa1ab482a467b948"
      },
      "encounter": {
        "reference": "Encounter/47fc088525418d0924dce79fa81a62046f09a53da06f32615b920d159114a675"
      },
      "_recordedDate": {
        "extension": [ {
          "url": "http://hl7.org/fhir/StructureDefinition/data-absent-reason",
          "valueCode": "unknown"
        } ]
      }
    },
    "request": {
      "method": "POST",
      "url": "Condition",
      "ifNoneExist": "identifier=https://mein.krankenhaus.de/fhir/NamingSystem/conditionId|04c177bebf6522cadea376d04a153c6ca1ae0915728f70db45907a3d5678d7b9"
    }
  }, {
    "fullUrl": "Condition/9fe6841493829f406e4a3f80cf54a02e0a074837c6b541ba554da8fc5c561f3e",
    "resource": {
      "resourceType": "Condition",
      "meta": {
        "profile": [ "https://www.netzwerk-universitaetsmedizin.de/fhir/StructureDefinition/chronic-lung-diseases" ]
      },
      "identifier": [ {
        "system": "https://mein.krankenhaus.de/fhir/NamingSystem/conditionId",
        "value": "9ffe94a0de60d616e102c90b519f01b4c0784498ec95e55b36b21dd3d382cc3c"
      } ],
      "clinicalStatus": {
        "coding": [ {
          "system": "http://terminology.hl7.org/CodeSystem/condition-clinical",
          "code": "active",
          "display": "Active"
        } ]
      },
      "verificationStatus": {
        "coding": [ {
          "system": "http://terminology.hl7.org/CodeSystem/condition-ver-status",
          "code": "confirmed",
          "display": "Confirmed"
        }, {
          "system": "http://snomed.info/sct",
          "code": "410605003",
          "display": "Confirmed present (qualifier value)"
        } ]
      },
      "category": [ {
        "coding": [ {
          "system": "http://snomed.info/sct",
          "code": "418112009",
          "display": "Pulmonary medicine (qualifier value)"
        } ]
      } ],
      "code": {
        "coding": [ {
          "system": "http://fhir.de/CodeSystem/dimdi/icd-10-gm",
          "version": "2021",
          "code": "G47.3"
        }, {
          "system": "http://snomed.info/sct",
          "code": "73430006"
        } ]
      },
      "subject": {
        "reference": "Patient/debc4b76df75a6a49a868d38d812ab4dcd2cf9c135339c35fa1ab482a467b948"
      },
      "encounter": {
        "reference": "Encounter/47fc088525418d0924dce79fa81a62046f09a53da06f32615b920d159114a675"
      },
      "_recordedDate": {
        "extension": [ {
          "url": "http://hl7.org/fhir/StructureDefinition/data-absent-reason",
          "valueCode": "unknown"
        } ]
      }
    },
    "request": {
      "method": "POST",
      "url": "Condition",
      "ifNoneExist": "identifier=https://mein.krankenhaus.de/fhir/NamingSystem/conditionId|9fe6841493829f406e4a3f80cf54a02e0a074837c6b541ba554da8fc5c561f3e"
    }
  }, {
    "fullUrl": "Condition/070943086b2b99868f9e258c5e5d725e403f15d08e551e22f9505dcf412dc8f2",
    "resource": {
      "resourceType": "Condition",
      "meta": {
        "profile": [ "https://www.netzwerk-universitaetsmedizin.de/fhir/StructureDefinition/chronic-lung-diseases" ]
      },
      "modifierExtension": [ {
        "url": "https://www.netzwerk-universitaetsmedizin.de/fhir/StructureDefinition/uncertainty-of-presence",
        "valueCodeableConcept": {
          "coding": [ {
            "system": "http://snomed.info/sct",
            "code": "261665006",
            "display": "Unknown (qualifier value)"
          } ],
          "text": "Presence unknown."
        }
      } ],
      "identifier": [ {
        "system": "https://mein.krankenhaus.de/fhir/NamingSystem/conditionId",
        "value": "179353ca1b7837b58de28a2833e4766cf2977c932efa827d6aee6d134dd390c6"
      } ],
      "category": [ {
        "coding": [ {
          "system": "http://snomed.info/sct",
          "code": "418112009",
          "display": "Pulmonary medicine (qualifier value)"
        } ]
      } ],
      "code": {
        "coding": [ {
          "system": "http://fhir.de/CodeSystem/dimdi/icd-10-gm",
          "version": "2021",
          "code": "G47.31"
        }, {
          "system": "http://snomed.info/sct",
          "code": "78275009"
        } ]
      },
      "subject": {
        "reference": "Patient/debc4b76df75a6a49a868d38d812ab4dcd2cf9c135339c35fa1ab482a467b948"
      },
      "encounter": {
        "reference": "Encounter/47fc088525418d0924dce79fa81a62046f09a53da06f32615b920d159114a675"
      },
      "_recordedDate": {
        "extension": [ {
          "url": "http://hl7.org/fhir/StructureDefinition/data-absent-reason",
          "valueCode": "unknown"
        } ]
      }
    },
    "request": {
      "method": "POST",
      "url": "Condition",
      "ifNoneExist": "identifier=https://mein.krankenhaus.de/fhir/NamingSystem/conditionId|070943086b2b99868f9e258c5e5d725e403f15d08e551e22f9505dcf412dc8f2"
    }
  }, {
    "fullUrl": "Condition/33905e05717642e644f6ab56133c938b930865c230a8f9bc7f6d59b1a44d0235",
    "resource": {
      "resourceType": "Condition",
      "meta": {
        "profile": [ "https://www.netzwerk-universitaetsmedizin.de/fhir/StructureDefinition/chronic-lung-diseases" ]
      },
      "modifierExtension": [ {
        "url": "https://www.netzwerk-universitaetsmedizin.de/fhir/StructureDefinition/uncertainty-of-presence",
        "valueCodeableConcept": {
          "coding": [ {
            "system": "http://snomed.info/sct",
            "code": "261665006",
            "display": "Unknown (qualifier value)"
          } ],
          "text": "Presence unknown."
        }
      } ],
      "identifier": [ {
        "system": "https://mein.krankenhaus.de/fhir/NamingSystem/conditionId",
        "value": "71ea51cf5ee0e7c322adef4d2c882fa72f4a9a8dc540ffde60b76598b5245cc3"
      } ],
      "category": [ {
        "coding": [ {
          "system": "http://snomed.info/sct",
          "code": "418112009",
          "display": "Pulmonary medicine (qualifier value)"
        } ]
      } ],
      "code": {
        "coding": [ {
          "system": "http://fhir.de/CodeSystem/dimdi/icd-10-gm",
          "version": "2021",
          "code": "E84.9"
        }, {
          "system": "http://snomed.info/sct",
          "code": "190905008"
        } ]
      },
      "subject": {
        "reference": "Patient/debc4b76df75a6a49a868d38d812ab4dcd2cf9c135339c35fa1ab482a467b948"
      },
      "encounter": {
        "reference": "Encounter/47fc088525418d0924dce79fa81a62046f09a53da06f32615b920d159114a675"
      },
      "_recordedDate": {
        "extension": [ {
          "url": "http://hl7.org/fhir/StructureDefinition/data-absent-reason",
          "valueCode": "unknown"
        } ]
      }
    },
    "request": {
      "method": "POST",
      "url": "Condition",
      "ifNoneExist": "identifier=https://mein.krankenhaus.de/fhir/NamingSystem/conditionId|33905e05717642e644f6ab56133c938b930865c230a8f9bc7f6d59b1a44d0235"
    }
  }, {
    "fullUrl": "Condition/01b7e93237e9f85d45a32ab545116a448a223cfe95a8afa0ced51161885bad3e",
    "resource": {
      "resourceType": "Condition",
      "meta": {
        "profile": [ "https://www.netzwerk-universitaetsmedizin.de/fhir/StructureDefinition/chronic-lung-diseases" ]
      },
      "identifier": [ {
        "system": "https://mein.krankenhaus.de/fhir/NamingSystem/conditionId",
        "value": "d4bd6ff04c35f63e5210a22eed60d55787947890a912d9eb06d81c2545940883"
      } ],
      "clinicalStatus": {
        "coding": [ {
          "system": "http://terminology.hl7.org/CodeSystem/condition-clinical",
          "code": "active",
          "display": "Active"
        } ]
      },
      "verificationStatus": {
        "coding": [ {
          "system": "http://terminology.hl7.org/CodeSystem/condition-ver-status",
          "code": "confirmed",
          "display": "Confirmed"
        }, {
          "system": "http://snomed.info/sct",
          "code": "410605003",
          "display": "Confirmed present (qualifier value)"
        } ]
      },
      "category": [ {
        "coding": [ {
          "system": "http://snomed.info/sct",
          "code": "418112009",
          "display": "Pulmonary medicine (qualifier value)"
        } ]
      } ],
      "code": {
        "coding": [ {
          "system": "http://snomed.info/sct",
          "code": "106048009"
        } ],
        "text": "<Freitext>"
      },
      "subject": {
        "reference": "Patient/debc4b76df75a6a49a868d38d812ab4dcd2cf9c135339c35fa1ab482a467b948"
      },
      "encounter": {
        "reference": "Encounter/47fc088525418d0924dce79fa81a62046f09a53da06f32615b920d159114a675"
      },
      "_recordedDate": {
        "extension": [ {
          "url": "http://hl7.org/fhir/StructureDefinition/data-absent-reason",
          "valueCode": "unknown"
        } ]
      }
    },
    "request": {
      "method": "POST",
      "url": "Condition",
      "ifNoneExist": "identifier=https://mein.krankenhaus.de/fhir/NamingSystem/conditionId|01b7e93237e9f85d45a32ab545116a448a223cfe95a8afa0ced51161885bad3e"
    }
  }, {
    "fullUrl": "Condition/565f2385382bb0c46c79da2fa9ab0b61da015df218e8eb30bb74a7d5e126c6c5",
    "resource": {
      "resourceType": "Condition",
      "meta": {
        "profile": [ "https://www.netzwerk-universitaetsmedizin.de/fhir/StructureDefinition/cardiovascular-diseases" ]
      },
      "identifier": [ {
        "system": "https://mein.krankenhaus.de/fhir/NamingSystem/conditionId",
        "value": "650103d86fccb12c9309e68b928c0956e65b5f64d9b4e7a7b851bc5b1e43ce07"
      } ],
      "verificationStatus": {
        "coding": [ {
          "system": "http://terminology.hl7.org/CodeSystem/condition-ver-status",
          "code": "refuted",
          "display": "Refuted"
        }, {
          "system": "http://snomed.info/sct",
          "code": "410594000",
          "display": "Definitely NOT present (qualifier value)"
        } ]
      },
      "category": [ {
        "coding": [ {
          "system": "http://snomed.info/sct",
          "code": "722414000",
          "display": "Vascular medicine (qualifier value)"
        } ]
      } ],
      "code": {
        "coding": [ {
          "system": "http://fhir.de/CodeSystem/dimdi/icd-10-gm",
          "version": "2021",
          "code": "I10.90"
        }, {
          "system": "http://snomed.info/sct",
          "code": "38341003"
        } ]
      },
      "subject": {
        "reference": "Patient/debc4b76df75a6a49a868d38d812ab4dcd2cf9c135339c35fa1ab482a467b948"
      },
      "encounter": {
        "reference": "Encounter/47fc088525418d0924dce79fa81a62046f09a53da06f32615b920d159114a675"
      },
      "_recordedDate": {
        "extension": [ {
          "url": "http://hl7.org/fhir/StructureDefinition/data-absent-reason",
          "valueCode": "unknown"
        } ]
      }
    },
    "request": {
      "method": "POST",
      "url": "Condition",
      "ifNoneExist": "identifier=https://mein.krankenhaus.de/fhir/NamingSystem/conditionId|565f2385382bb0c46c79da2fa9ab0b61da015df218e8eb30bb74a7d5e126c6c5"
    }
  }, {
    "fullUrl": "Condition/eadafef49659773778120ae655f7373552c96155d20bcba91628b67bdc079412",
    "resource": {
      "resourceType": "Condition",
      "meta": {
        "profile": [ "https://www.netzwerk-universitaetsmedizin.de/fhir/StructureDefinition/cardiovascular-diseases" ]
      },
      "identifier": [ {
        "system": "https://mein.krankenhaus.de/fhir/NamingSystem/conditionId",
        "value": "77e8c3159b0826df764069183433ccbf5bf0c49bbdf3cd9cbd24e8c746fc78b0"
      } ],
      "verificationStatus": {
        "coding": [ {
          "system": "http://terminology.hl7.org/CodeSystem/condition-ver-status",
          "code": "refuted",
          "display": "Refuted"
        }, {
          "system": "http://snomed.info/sct",
          "code": "410594000",
          "display": "Definitely NOT present (qualifier value)"
        } ]
      },
      "category": [ {
        "coding": [ {
          "system": "http://snomed.info/sct",
          "code": "722414000",
          "display": "Vascular medicine (qualifier value)"
        } ]
      } ],
      "code": {
        "coding": [ {
          "system": "http://fhir.de/CodeSystem/dimdi/icd-10-gm",
          "version": "2021",
          "code": "I25.29"
        }, {
          "system": "http://snomed.info/sct",
          "code": "417662000:246090004=22298006"
        } ]
      },
      "subject": {
        "reference": "Patient/debc4b76df75a6a49a868d38d812ab4dcd2cf9c135339c35fa1ab482a467b948"
      },
      "encounter": {
        "reference": "Encounter/47fc088525418d0924dce79fa81a62046f09a53da06f32615b920d159114a675"
      },
      "_recordedDate": {
        "extension": [ {
          "url": "http://hl7.org/fhir/StructureDefinition/data-absent-reason",
          "valueCode": "unknown"
        } ]
      }
    },
    "request": {
      "method": "POST",
      "url": "Condition",
      "ifNoneExist": "identifier=https://mein.krankenhaus.de/fhir/NamingSystem/conditionId|eadafef49659773778120ae655f7373552c96155d20bcba91628b67bdc079412"
    }
  }, {
    "fullUrl": "Condition/4482823c75989e00a30594616f9b823baeb626925f3eb3203c3d39cdd0d88361",
    "resource": {
      "resourceType": "Condition",
      "meta": {
        "profile": [ "https://www.netzwerk-universitaetsmedizin.de/fhir/StructureDefinition/cardiovascular-diseases" ]
      },
      "identifier": [ {
        "system": "https://mein.krankenhaus.de/fhir/NamingSystem/conditionId",
        "value": "a4981333b6bfac306d93b161633d58736be7ea306a9596497bf752d4b276653a"
      } ],
      "verificationStatus": {
        "coding": [ {
          "system": "http://terminology.hl7.org/CodeSystem/condition-ver-status",
          "code": "refuted",
          "display": "Refuted"
        }, {
          "system": "http://snomed.info/sct",
          "code": "410594000",
          "display": "Definitely NOT present (qualifier value)"
        } ]
      },
      "category": [ {
        "coding": [ {
          "system": "http://snomed.info/sct",
          "code": "722414000",
          "display": "Vascular medicine (qualifier value)"
        } ]
      } ],
      "code": {
        "coding": [ {
          "system": "http://fhir.de/CodeSystem/dimdi/icd-10-gm",
          "version": "2021",
          "code": "I49.9"
        }, {
          "system": "http://snomed.info/sct",
          "code": "698247007"
        } ]
      },
      "subject": {
        "reference": "Patient/debc4b76df75a6a49a868d38d812ab4dcd2cf9c135339c35fa1ab482a467b948"
      },
      "encounter": {
        "reference": "Encounter/47fc088525418d0924dce79fa81a62046f09a53da06f32615b920d159114a675"
      },
      "_recordedDate": {
        "extension": [ {
          "url": "http://hl7.org/fhir/StructureDefinition/data-absent-reason",
          "valueCode": "unknown"
        } ]
      }
    },
    "request": {
      "method": "POST",
      "url": "Condition",
      "ifNoneExist": "identifier=https://mein.krankenhaus.de/fhir/NamingSystem/conditionId|4482823c75989e00a30594616f9b823baeb626925f3eb3203c3d39cdd0d88361"
    }
  }, {
    "fullUrl": "Condition/537c5e5fd27b222de72b2fba56cb1ab82aecadce08f8a42ce2eccbd3cfd02b8f",
    "resource": {
      "resourceType": "Condition",
      "meta": {
        "profile": [ "https://www.netzwerk-universitaetsmedizin.de/fhir/StructureDefinition/cardiovascular-diseases" ]
      },
      "identifier": [ {
        "system": "https://mein.krankenhaus.de/fhir/NamingSystem/conditionId",
        "value": "51b90600dd7015c170a6d3bdf08f8ae0a0bc58d10e38c1382dc213ae6462b545"
      } ],
      "verificationStatus": {
        "coding": [ {
          "system": "http://terminology.hl7.org/CodeSystem/condition-ver-status",
          "code": "refuted",
          "display": "Refuted"
        }, {
          "system": "http://snomed.info/sct",
          "code": "410594000",
          "display": "Definitely NOT present (qualifier value)"
        } ]
      },
      "category": [ {
        "coding": [ {
          "system": "http://snomed.info/sct",
          "code": "722414000",
          "display": "Vascular medicine (qualifier value)"
        } ]
      } ],
      "code": {
        "coding": [ {
          "system": "http://fhir.de/CodeSystem/dimdi/icd-10-gm",
          "version": "2021",
          "code": "I50.9"
        }, {
          "system": "http://snomed.info/sct",
          "code": "84114007"
        } ]
      },
      "subject": {
        "reference": "Patient/debc4b76df75a6a49a868d38d812ab4dcd2cf9c135339c35fa1ab482a467b948"
      },
      "encounter": {
        "reference": "Encounter/47fc088525418d0924dce79fa81a62046f09a53da06f32615b920d159114a675"
      },
      "_recordedDate": {
        "extension": [ {
          "url": "http://hl7.org/fhir/StructureDefinition/data-absent-reason",
          "valueCode": "unknown"
        } ]
      }
    },
    "request": {
      "method": "POST",
      "url": "Condition",
      "ifNoneExist": "identifier=https://mein.krankenhaus.de/fhir/NamingSystem/conditionId|537c5e5fd27b222de72b2fba56cb1ab82aecadce08f8a42ce2eccbd3cfd02b8f"
    }
  }, {
    "fullUrl": "Condition/425ea7e277c606dfea5ec7bd3021bfbde40bdce9b7928005e0f61622aaa6ad16",
    "resource": {
      "resourceType": "Condition",
      "meta": {
        "profile": [ "https://www.netzwerk-universitaetsmedizin.de/fhir/StructureDefinition/cardiovascular-diseases" ]
      },
      "identifier": [ {
        "system": "https://mein.krankenhaus.de/fhir/NamingSystem/conditionId",
        "value": "2d2ad716a71d0e4035db59ea8bf6aa35bb7741379f143e724429e320618e6aa8"
      } ],
      "clinicalStatus": {
        "coding": [ {
          "system": "http://terminology.hl7.org/CodeSystem/condition-clinical",
          "code": "active",
          "display": "Active"
        } ]
      },
      "verificationStatus": {
        "coding": [ {
          "system": "http://terminology.hl7.org/CodeSystem/condition-ver-status",
          "code": "confirmed",
          "display": "Confirmed"
        }, {
          "system": "http://snomed.info/sct",
          "code": "410605003",
          "display": "Confirmed present (qualifier value)"
        } ]
      },
      "category": [ {
        "coding": [ {
          "system": "http://snomed.info/sct",
          "code": "722414000",
          "display": "Vascular medicine (qualifier value)"
        } ]
      } ],
      "code": {
        "coding": [ {
          "system": "http://fhir.de/CodeSystem/dimdi/icd-10-gm",
          "version": "2021",
          "code": "I73.9"
        }, {
          "system": "http://snomed.info/sct",
          "code": "399957001"
        } ]
      },
      "subject": {
        "reference": "Patient/debc4b76df75a6a49a868d38d812ab4dcd2cf9c135339c35fa1ab482a467b948"
      },
      "encounter": {
        "reference": "Encounter/47fc088525418d0924dce79fa81a62046f09a53da06f32615b920d159114a675"
      },
      "_recordedDate": {
        "extension": [ {
          "url": "http://hl7.org/fhir/StructureDefinition/data-absent-reason",
          "valueCode": "unknown"
        } ]
      }
    },
    "request": {
      "method": "POST",
      "url": "Condition",
      "ifNoneExist": "identifier=https://mein.krankenhaus.de/fhir/NamingSystem/conditionId|425ea7e277c606dfea5ec7bd3021bfbde40bdce9b7928005e0f61622aaa6ad16"
    }
  }, {
    "fullUrl": "Condition/0147a03c5cf50f69b03497e31838e4074a4368e85b435a4ae90e21b2e2417395",
    "resource": {
      "resourceType": "Condition",
      "meta": {
        "profile": [ "https://www.netzwerk-universitaetsmedizin.de/fhir/StructureDefinition/cardiovascular-diseases" ]
      },
      "identifier": [ {
        "system": "https://mein.krankenhaus.de/fhir/NamingSystem/conditionId",
        "value": "ca8953948e7b9885fb028eb5685d7a85ed7e0433f3b0632db134f58461dddb25"
      } ],
      "verificationStatus": {
        "coding": [ {
          "system": "http://terminology.hl7.org/CodeSystem/condition-ver-status",
          "code": "refuted",
          "display": "Refuted"
        }, {
          "system": "http://snomed.info/sct",
          "code": "410594000",
          "display": "Definitely NOT present (qualifier value)"
        } ]
      },
      "category": [ {
        "coding": [ {
          "system": "http://snomed.info/sct",
          "code": "722414000",
          "display": "Vascular medicine (qualifier value)"
        } ]
      } ],
      "code": {
        "coding": [ {
          "system": "http://fhir.de/CodeSystem/dimdi/icd-10-gm",
          "version": "2021",
          "code": "Z95.5"
        }, {
          "system": "http://snomed.info/sct",
          "code": "416940007:363589002=81266008"
        } ]
      },
      "subject": {
        "reference": "Patient/debc4b76df75a6a49a868d38d812ab4dcd2cf9c135339c35fa1ab482a467b948"
      },
      "encounter": {
        "reference": "Encounter/47fc088525418d0924dce79fa81a62046f09a53da06f32615b920d159114a675"
      },
      "_recordedDate": {
        "extension": [ {
          "url": "http://hl7.org/fhir/StructureDefinition/data-absent-reason",
          "valueCode": "unknown"
        } ]
      }
    },
    "request": {
      "method": "POST",
      "url": "Condition",
      "ifNoneExist": "identifier=https://mein.krankenhaus.de/fhir/NamingSystem/conditionId|0147a03c5cf50f69b03497e31838e4074a4368e85b435a4ae90e21b2e2417395"
    }
  }, {
    "fullUrl": "Condition/14d112ceda5c6f025e2c0688cfe34ec6272558b22c34b8f72ef5c34a1e64bebb",
    "resource": {
      "resourceType": "Condition",
      "meta": {
        "profile": [ "https://www.netzwerk-universitaetsmedizin.de/fhir/StructureDefinition/cardiovascular-diseases" ]
      },
      "identifier": [ {
        "system": "https://mein.krankenhaus.de/fhir/NamingSystem/conditionId",
        "value": "94bf17e0c4a232c76d57b39ea76360af8dcc54011e933b85111209fc76d7e510"
      } ],
      "verificationStatus": {
        "coding": [ {
          "system": "http://terminology.hl7.org/CodeSystem/condition-ver-status",
          "code": "refuted",
          "display": "Refuted"
        }, {
          "system": "http://snomed.info/sct",
          "code": "410594000",
          "display": "Definitely NOT present (qualifier value)"
        } ]
      },
      "category": [ {
        "coding": [ {
          "system": "http://snomed.info/sct",
          "code": "722414000",
          "display": "Vascular medicine (qualifier value)"
        } ]
      } ],
      "code": {
        "coding": [ {
          "system": "http://fhir.de/CodeSystem/dimdi/icd-10-gm",
          "version": "2021",
          "code": "I25.1"
        }, {
          "system": "http://snomed.info/sct",
          "code": "53741008"
        } ]
      },
      "subject": {
        "reference": "Patient/debc4b76df75a6a49a868d38d812ab4dcd2cf9c135339c35fa1ab482a467b948"
      },
      "encounter": {
        "reference": "Encounter/47fc088525418d0924dce79fa81a62046f09a53da06f32615b920d159114a675"
      },
      "_recordedDate": {
        "extension": [ {
          "url": "http://hl7.org/fhir/StructureDefinition/data-absent-reason",
          "valueCode": "unknown"
        } ]
      }
    },
    "request": {
      "method": "POST",
      "url": "Condition",
      "ifNoneExist": "identifier=https://mein.krankenhaus.de/fhir/NamingSystem/conditionId|14d112ceda5c6f025e2c0688cfe34ec6272558b22c34b8f72ef5c34a1e64bebb"
    }
  }, {
    "fullUrl": "Condition/7b149c0711b1e42267419a250b94d21dedc32e0fbe0002221b18fadc2231c8a1",
    "resource": {
      "resourceType": "Condition",
      "meta": {
        "profile": [ "https://www.netzwerk-universitaetsmedizin.de/fhir/StructureDefinition/cardiovascular-diseases" ]
      },
      "identifier": [ {
        "system": "https://mein.krankenhaus.de/fhir/NamingSystem/conditionId",
        "value": "efca4e16e21ed2e803189ad08aa2c495862dc21a15bd9dae71eaef748beadf87"
      } ],
      "clinicalStatus": {
        "coding": [ {
          "system": "http://terminology.hl7.org/CodeSystem/condition-clinical",
          "code": "active",
          "display": "Active"
        } ]
      },
      "verificationStatus": {
        "coding": [ {
          "system": "http://terminology.hl7.org/CodeSystem/condition-ver-status",
          "code": "confirmed",
          "display": "Confirmed"
        }, {
          "system": "http://snomed.info/sct",
          "code": "410605003",
          "display": "Confirmed present (qualifier value)"
        } ]
      },
      "category": [ {
        "coding": [ {
          "system": "http://snomed.info/sct",
          "code": "722414000",
          "display": "Vascular medicine (qualifier value)"
        } ]
      } ],
      "code": {
        "coding": [ {
          "system": "http://fhir.de/CodeSystem/dimdi/icd-10-gm",
          "version": "2021",
          "code": "I65.2"
        }, {
          "system": "http://snomed.info/sct",
          "code": "64586002"
        } ]
      },
      "subject": {
        "reference": "Patient/debc4b76df75a6a49a868d38d812ab4dcd2cf9c135339c35fa1ab482a467b948"
      },
      "encounter": {
        "reference": "Encounter/47fc088525418d0924dce79fa81a62046f09a53da06f32615b920d159114a675"
      },
      "_recordedDate": {
        "extension": [ {
          "url": "http://hl7.org/fhir/StructureDefinition/data-absent-reason",
          "valueCode": "unknown"
        } ]
      }
    },
    "request": {
      "method": "POST",
      "url": "Condition",
      "ifNoneExist": "identifier=https://mein.krankenhaus.de/fhir/NamingSystem/conditionId|7b149c0711b1e42267419a250b94d21dedc32e0fbe0002221b18fadc2231c8a1"
    }
  }, {
    "fullUrl": "Condition/4643376eb5f5a2b70a02f2d869549a8bf2fa9363737572c175b5b42d812f1db6",
    "resource": {
      "resourceType": "Condition",
      "meta": {
        "profile": [ "https://www.netzwerk-universitaetsmedizin.de/fhir/StructureDefinition/cardiovascular-diseases" ]
      },
      "identifier": [ {
        "system": "https://mein.krankenhaus.de/fhir/NamingSystem/conditionId",
        "value": "f14112e7bbfb9274c923cf06446d7bc2e21f0f9e7ce207736b3f59b23b7ece1e"
      } ],
      "verificationStatus": {
        "coding": [ {
          "system": "http://terminology.hl7.org/CodeSystem/condition-ver-status",
          "code": "refuted",
          "display": "Refuted"
        }, {
          "system": "http://snomed.info/sct",
          "code": "410594000",
          "display": "Definitely NOT present (qualifier value)"
        } ]
      },
      "category": [ {
        "coding": [ {
          "system": "http://snomed.info/sct",
          "code": "722414000",
          "display": "Vascular medicine (qualifier value)"
        } ]
      } ],
      "code": {
        "coding": [ {
          "system": "http://fhir.de/CodeSystem/dimdi/icd-10-gm",
          "version": "2021",
          "code": "I51.6"
        }, {
          "system": "http://snomed.info/sct",
          "code": "49601007"
        } ]
      },
      "subject": {
        "reference": "Patient/debc4b76df75a6a49a868d38d812ab4dcd2cf9c135339c35fa1ab482a467b948"
      },
      "encounter": {
        "reference": "Encounter/47fc088525418d0924dce79fa81a62046f09a53da06f32615b920d159114a675"
      },
      "_recordedDate": {
        "extension": [ {
          "url": "http://hl7.org/fhir/StructureDefinition/data-absent-reason",
          "valueCode": "unknown"
        } ]
      }
    },
    "request": {
      "method": "POST",
      "url": "Condition",
      "ifNoneExist": "identifier=https://mein.krankenhaus.de/fhir/NamingSystem/conditionId|4643376eb5f5a2b70a02f2d869549a8bf2fa9363737572c175b5b42d812f1db6"
    }
  }, {
    "fullUrl": "Condition/984b0bbc38a8ef94ed0f8b811e2d7ab76ab815ddb1b2cf1280c181daccd75e48",
    "resource": {
      "resourceType": "Condition",
      "meta": {
        "profile": [ "https://www.netzwerk-universitaetsmedizin.de/fhir/StructureDefinition/human-immunodeficiency-virus-infection" ]
      },
      "identifier": [ {
        "system": "https://mein.krankenhaus.de/fhir/NamingSystem/conditionId",
        "value": "082470baaad852bb225d025ec41a598527743399b273dc653a78238c73adf49a"
      } ],
      "verificationStatus": {
        "coding": [ {
          "system": "http://terminology.hl7.org/CodeSystem/condition-ver-status",
          "code": "refuted",
          "display": "Refuted"
        }, {
          "system": "http://snomed.info/sct",
          "code": "410594000",
          "display": "Definitely NOT present (qualifier value)"
        } ]
      },
      "category": [ {
        "coding": [ {
          "system": "http://snomed.info/sct",
          "code": "394807007",
          "display": "Infectious diseases (specialty) (qualifier value)"
        } ]
      } ],
      "code": {
        "coding": [ {
          "system": "http://fhir.de/CodeSystem/dimdi/icd-10-gm",
          "version": "2021",
          "code": "B24"
        }, {
          "system": "http://snomed.info/sct",
          "code": "86406008"
        } ]
      },
      "subject": {
        "reference": "Patient/debc4b76df75a6a49a868d38d812ab4dcd2cf9c135339c35fa1ab482a467b948"
      },
      "encounter": {
        "reference": "Encounter/47fc088525418d0924dce79fa81a62046f09a53da06f32615b920d159114a675"
      },
      "_recordedDate": {
        "extension": [ {
          "url": "http://hl7.org/fhir/StructureDefinition/data-absent-reason",
          "valueCode": "unknown"
        } ]
      }
    },
    "request": {
      "method": "POST",
      "url": "Condition",
      "ifNoneExist": "identifier=https://mein.krankenhaus.de/fhir/NamingSystem/conditionId|984b0bbc38a8ef94ed0f8b811e2d7ab76ab815ddb1b2cf1280c181daccd75e48"
    }
  }, {
    "fullUrl": "Condition/ca92a39291f9bcfbc5ad3f493b50c74f52990a432cca8ee3aa0680e3835e82af",
    "resource": {
      "resourceType": "Condition",
      "meta": {
        "profile": [ "https://www.netzwerk-universitaetsmedizin.de/fhir/StructureDefinition/organ-recipient" ]
      },
      "modifierExtension": [ {
        "url": "https://www.netzwerk-universitaetsmedizin.de/fhir/StructureDefinition/uncertainty-of-presence",
        "valueCodeableConcept": {
          "coding": [ {
            "system": "http://snomed.info/sct",
            "code": "261665006",
            "display": "Unknown (qualifier value)"
          } ],
          "text": "Presence unknown."
        }
      } ],
      "identifier": [ {
        "system": "https://mein.krankenhaus.de/fhir/NamingSystem/conditionId",
        "value": "37c30a0dfeed520191bc9efb15593ab7c4d4bf443caef36a01bb0e220f2205f2"
      } ],
      "category": [ {
        "coding": [ {
          "system": "http://snomed.info/sct",
          "code": "788415003",
          "display": "Transplant medicine (qualifier value)"
        } ]
      } ],
      "code": {
        "coding": [ {
          "system": "http://fhir.de/CodeSystem/dimdi/icd-10-gm",
          "version": "2021",
          "code": "Z94.1"
        } ]
      },
      "bodySite": [ {
        "coding": [ {
          "system": "http://snomed.info/sct",
          "code": "302509004"
        } ]
      } ],
      "subject": {
        "reference": "Patient/debc4b76df75a6a49a868d38d812ab4dcd2cf9c135339c35fa1ab482a467b948"
      },
      "encounter": {
        "reference": "Encounter/47fc088525418d0924dce79fa81a62046f09a53da06f32615b920d159114a675"
      },
      "_recordedDate": {
        "extension": [ {
          "url": "http://hl7.org/fhir/StructureDefinition/data-absent-reason",
          "valueCode": "unknown"
        } ]
      }
    },
    "request": {
      "method": "POST",
      "url": "Condition",
      "ifNoneExist": "identifier=https://mein.krankenhaus.de/fhir/NamingSystem/conditionId|ca92a39291f9bcfbc5ad3f493b50c74f52990a432cca8ee3aa0680e3835e82af"
    }
  }, {
    "fullUrl": "Condition/5d9b11821cf7ee18ed40249aa37a97d7a3dbba3746fe8fc2d3dd1efb67496919",
    "resource": {
      "resourceType": "Condition",
      "meta": {
        "profile": [ "https://www.netzwerk-universitaetsmedizin.de/fhir/StructureDefinition/organ-recipient" ]
      },
      "identifier": [ {
        "system": "https://mein.krankenhaus.de/fhir/NamingSystem/conditionId",
        "value": "e71372907ebc94b50e8c93be548b20411fe5648b159639129cdb3107ee8e57b9"
      } ],
      "verificationStatus": {
        "coding": [ {
          "system": "http://terminology.hl7.org/CodeSystem/condition-ver-status",
          "code": "refuted",
          "display": "Refuted"
        }, {
          "system": "http://snomed.info/sct",
          "code": "410594000",
          "display": "Definitely NOT present (qualifier value)"
        } ]
      },
      "category": [ {
        "coding": [ {
          "system": "http://snomed.info/sct",
          "code": "788415003",
          "display": "Transplant medicine (qualifier value)"
        } ]
      } ],
      "code": {
        "coding": [ {
          "system": "http://fhir.de/CodeSystem/dimdi/icd-10-gm",
          "version": "2021",
          "code": "Z94.2"
        } ]
      },
      "bodySite": [ {
        "coding": [ {
          "system": "http://snomed.info/sct",
          "code": "181216001"
        } ]
      } ],
      "subject": {
        "reference": "Patient/debc4b76df75a6a49a868d38d812ab4dcd2cf9c135339c35fa1ab482a467b948"
      },
      "encounter": {
        "reference": "Encounter/47fc088525418d0924dce79fa81a62046f09a53da06f32615b920d159114a675"
      },
      "_recordedDate": {
        "extension": [ {
          "url": "http://hl7.org/fhir/StructureDefinition/data-absent-reason",
          "valueCode": "unknown"
        } ]
      }
    },
    "request": {
      "method": "POST",
      "url": "Condition",
      "ifNoneExist": "identifier=https://mein.krankenhaus.de/fhir/NamingSystem/conditionId|5d9b11821cf7ee18ed40249aa37a97d7a3dbba3746fe8fc2d3dd1efb67496919"
    }
  }, {
    "fullUrl": "Condition/f03347a678678dfc897845d1ab1b37e56cbacd074f6c6a63db29435a28f106e9",
    "resource": {
      "resourceType": "Condition",
      "meta": {
        "profile": [ "https://www.netzwerk-universitaetsmedizin.de/fhir/StructureDefinition/organ-recipient" ]
      },
      "identifier": [ {
        "system": "https://mein.krankenhaus.de/fhir/NamingSystem/conditionId",
        "value": "6802b8f32fd5ace40604c17ec9e4bdb12f17676dd57a8da2384b8a5c83257bfb"
      } ],
      "verificationStatus": {
        "coding": [ {
          "system": "http://terminology.hl7.org/CodeSystem/condition-ver-status",
          "code": "refuted",
          "display": "Refuted"
        }, {
          "system": "http://snomed.info/sct",
          "code": "410594000",
          "display": "Definitely NOT present (qualifier value)"
        } ]
      },
      "category": [ {
        "coding": [ {
          "system": "http://snomed.info/sct",
          "code": "788415003",
          "display": "Transplant medicine (qualifier value)"
        } ]
      } ],
      "code": {
        "coding": [ {
          "system": "http://fhir.de/CodeSystem/dimdi/icd-10-gm",
          "version": "2021",
          "code": "Z94.4"
        } ]
      },
      "bodySite": [ {
        "coding": [ {
          "system": "http://snomed.info/sct",
          "code": "181268008"
        } ]
      } ],
      "subject": {
        "reference": "Patient/debc4b76df75a6a49a868d38d812ab4dcd2cf9c135339c35fa1ab482a467b948"
      },
      "encounter": {
        "reference": "Encounter/47fc088525418d0924dce79fa81a62046f09a53da06f32615b920d159114a675"
      },
      "_recordedDate": {
        "extension": [ {
          "url": "http://hl7.org/fhir/StructureDefinition/data-absent-reason",
          "valueCode": "unknown"
        } ]
      }
    },
    "request": {
      "method": "POST",
      "url": "Condition",
      "ifNoneExist": "identifier=https://mein.krankenhaus.de/fhir/NamingSystem/conditionId|f03347a678678dfc897845d1ab1b37e56cbacd074f6c6a63db29435a28f106e9"
    }
  }, {
    "fullUrl": "Condition/1f3c825cb4746a48d53095e795fe9794617c7af55e2f3f9c837232e428d941d5",
    "resource": {
      "resourceType": "Condition",
      "meta": {
        "profile": [ "https://www.netzwerk-universitaetsmedizin.de/fhir/StructureDefinition/organ-recipient" ]
      },
      "modifierExtension": [ {
        "url": "https://www.netzwerk-universitaetsmedizin.de/fhir/StructureDefinition/uncertainty-of-presence",
        "valueCodeableConcept": {
          "coding": [ {
            "system": "http://snomed.info/sct",
            "code": "261665006",
            "display": "Unknown (qualifier value)"
          } ],
          "text": "Presence unknown."
        }
      } ],
      "identifier": [ {
        "system": "https://mein.krankenhaus.de/fhir/NamingSystem/conditionId",
        "value": "b8c3ecc3952af117c00e47a08887a79eb861c9dd19610a07b01a15f3a3ced8a2"
      } ],
      "category": [ {
        "coding": [ {
          "system": "http://snomed.info/sct",
          "code": "788415003",
          "display": "Transplant medicine (qualifier value)"
        } ]
      } ],
      "code": {
        "coding": [ {
          "system": "http://fhir.de/CodeSystem/dimdi/icd-10-gm",
          "version": "2021",
          "code": "Z94.0"
        } ]
      },
      "bodySite": [ {
        "coding": [ {
          "system": "http://snomed.info/sct",
          "code": "181414000"
        } ]
      } ],
      "subject": {
        "reference": "Patient/debc4b76df75a6a49a868d38d812ab4dcd2cf9c135339c35fa1ab482a467b948"
      },
      "encounter": {
        "reference": "Encounter/47fc088525418d0924dce79fa81a62046f09a53da06f32615b920d159114a675"
      },
      "_recordedDate": {
        "extension": [ {
          "url": "http://hl7.org/fhir/StructureDefinition/data-absent-reason",
          "valueCode": "unknown"
        } ]
      }
    },
    "request": {
      "method": "POST",
      "url": "Condition",
      "ifNoneExist": "identifier=https://mein.krankenhaus.de/fhir/NamingSystem/conditionId|1f3c825cb4746a48d53095e795fe9794617c7af55e2f3f9c837232e428d941d5"
    }
  }, {
    "fullUrl": "Condition/51565145e33de7d42e8f566b93fbc1206fa87ecbf7decd51aa3bfe586b3c55a4",
    "resource": {
      "resourceType": "Condition",
      "meta": {
        "profile": [ "https://www.netzwerk-universitaetsmedizin.de/fhir/StructureDefinition/organ-recipient" ]
      },
      "identifier": [ {
        "system": "https://mein.krankenhaus.de/fhir/NamingSystem/conditionId",
        "value": "c573e80d66b036381489883ae6a1c65258c20a722f9c6d472fecb77e842a0688"
      } ],
      "clinicalStatus": {
        "coding": [ {
          "system": "http://terminology.hl7.org/CodeSystem/condition-clinical",
          "code": "active",
          "display": "Active"
        } ]
      },
      "verificationStatus": {
        "coding": [ {
          "system": "http://terminology.hl7.org/CodeSystem/condition-ver-status",
          "code": "confirmed",
          "display": "Confirmed"
        }, {
          "system": "http://snomed.info/sct",
          "code": "410605003",
          "display": "Confirmed present (qualifier value)"
        } ]
      },
      "category": [ {
        "coding": [ {
          "system": "http://snomed.info/sct",
          "code": "788415003",
          "display": "Transplant medicine (qualifier value)"
        } ]
      } ],
      "code": {
        "coding": [ {
          "system": "http://fhir.de/CodeSystem/dimdi/icd-10-gm",
          "version": "2021",
          "code": "Z94.88"
        } ]
      },
      "bodySite": [ {
        "coding": [ {
          "system": "http://snomed.info/sct",
          "code": "113276009"
        } ]
      } ],
      "subject": {
        "reference": "Patient/debc4b76df75a6a49a868d38d812ab4dcd2cf9c135339c35fa1ab482a467b948"
      },
      "encounter": {
        "reference": "Encounter/47fc088525418d0924dce79fa81a62046f09a53da06f32615b920d159114a675"
      },
      "_recordedDate": {
        "extension": [ {
          "url": "http://hl7.org/fhir/StructureDefinition/data-absent-reason",
          "valueCode": "unknown"
        } ]
      }
    },
    "request": {
      "method": "POST",
      "url": "Condition",
      "ifNoneExist": "identifier=https://mein.krankenhaus.de/fhir/NamingSystem/conditionId|51565145e33de7d42e8f566b93fbc1206fa87ecbf7decd51aa3bfe586b3c55a4"
    }
  }, {
    "fullUrl": "Condition/0c2bb2a4c28c8bdcb6e0a7aef529e464c449bea101939c81d4ed0ab5318e1e50",
    "resource": {
      "resourceType": "Condition",
      "meta": {
        "profile": [ "https://www.netzwerk-universitaetsmedizin.de/fhir/StructureDefinition/organ-recipient" ]
      },
      "identifier": [ {
        "system": "https://mein.krankenhaus.de/fhir/NamingSystem/conditionId",
        "value": "b733c5fc459fecc6ef5f9a95a8479d2bd0ff3c8a804b555d593dbb04fe7d51ef"
      } ],
      "clinicalStatus": {
        "coding": [ {
          "system": "http://terminology.hl7.org/CodeSystem/condition-clinical",
          "code": "active",
          "display": "Active"
        } ]
      },
      "verificationStatus": {
        "coding": [ {
          "system": "http://terminology.hl7.org/CodeSystem/condition-ver-status",
          "code": "confirmed",
          "display": "Confirmed"
        }, {
          "system": "http://snomed.info/sct",
          "code": "410605003",
          "display": "Confirmed present (qualifier value)"
        } ]
      },
      "category": [ {
        "coding": [ {
          "system": "http://snomed.info/sct",
          "code": "788415003",
          "display": "Transplant medicine (qualifier value)"
        } ]
      } ],
      "code": {
        "coding": [ {
          "system": "http://fhir.de/CodeSystem/dimdi/icd-10-gm",
          "version": "2021",
          "code": "Z94.5"
        } ]
      },
      "bodySite": [ {
        "coding": [ {
          "system": "http://snomed.info/sct",
          "code": "119181002"
        } ]
      } ],
      "subject": {
        "reference": "Patient/debc4b76df75a6a49a868d38d812ab4dcd2cf9c135339c35fa1ab482a467b948"
      },
      "encounter": {
        "reference": "Encounter/47fc088525418d0924dce79fa81a62046f09a53da06f32615b920d159114a675"
      },
      "_recordedDate": {
        "extension": [ {
          "url": "http://hl7.org/fhir/StructureDefinition/data-absent-reason",
          "valueCode": "unknown"
        } ]
      }
    },
    "request": {
      "method": "POST",
      "url": "Condition",
      "ifNoneExist": "identifier=https://mein.krankenhaus.de/fhir/NamingSystem/conditionId|0c2bb2a4c28c8bdcb6e0a7aef529e464c449bea101939c81d4ed0ab5318e1e50"
    }
  }, {
    "fullUrl": "Condition/fcd5f4a299858d1d7a0c7ffa17458010dace263ce1ee694084153ce5780d3731",
    "resource": {
      "resourceType": "Condition",
      "meta": {
        "profile": [ "https://www.netzwerk-universitaetsmedizin.de/fhir/StructureDefinition/organ-recipient" ]
      },
      "identifier": [ {
        "system": "https://mein.krankenhaus.de/fhir/NamingSystem/conditionId",
        "value": "e95060bdc379fd7ccad1656f782123ac5e72d68b721e5e032e740d7a8732b8f4"
      } ],
      "clinicalStatus": {
        "coding": [ {
          "system": "http://terminology.hl7.org/CodeSystem/condition-clinical",
          "code": "active",
          "display": "Active"
        } ]
      },
      "verificationStatus": {
        "coding": [ {
          "system": "http://terminology.hl7.org/CodeSystem/condition-ver-status",
          "code": "confirmed",
          "display": "Confirmed"
        }, {
          "system": "http://snomed.info/sct",
          "code": "410605003",
          "display": "Confirmed present (qualifier value)"
        } ]
      },
      "category": [ {
        "coding": [ {
          "system": "http://snomed.info/sct",
          "code": "788415003",
          "display": "Transplant medicine (qualifier value)"
        } ]
      } ],
      "code": {
        "coding": [ {
          "system": "http://fhir.de/CodeSystem/dimdi/icd-10-gm",
          "version": "2021",
          "code": "Z94.7"
        } ]
      },
      "bodySite": [ {
        "coding": [ {
          "system": "http://snomed.info/sct",
          "code": "181162001"
        } ]
      } ],
      "subject": {
        "reference": "Patient/debc4b76df75a6a49a868d38d812ab4dcd2cf9c135339c35fa1ab482a467b948"
      },
      "encounter": {
        "reference": "Encounter/47fc088525418d0924dce79fa81a62046f09a53da06f32615b920d159114a675"
      },
      "_recordedDate": {
        "extension": [ {
          "url": "http://hl7.org/fhir/StructureDefinition/data-absent-reason",
          "valueCode": "unknown"
        } ]
      }
    },
    "request": {
      "method": "POST",
      "url": "Condition",
      "ifNoneExist": "identifier=https://mein.krankenhaus.de/fhir/NamingSystem/conditionId|fcd5f4a299858d1d7a0c7ffa17458010dace263ce1ee694084153ce5780d3731"
    }
  }, {
    "fullUrl": "Condition/b89c6cfd783d3ce1a0bd28620d41e8a916d42703cd32ba33bd46dad203b80425",
    "resource": {
      "resourceType": "Condition",
      "meta": {
        "profile": [ "https://www.netzwerk-universitaetsmedizin.de/fhir/StructureDefinition/organ-recipient" ]
      },
      "identifier": [ {
        "system": "https://mein.krankenhaus.de/fhir/NamingSystem/conditionId",
        "value": "8e2080d22f13619135d8cfc18294de029db133f6c1c9e0010f8f436675609683"
      } ],
      "verificationStatus": {
        "coding": [ {
          "system": "http://terminology.hl7.org/CodeSystem/condition-ver-status",
          "code": "refuted",
          "display": "Refuted"
        }, {
          "system": "http://snomed.info/sct",
          "code": "410594000",
          "display": "Definitely NOT present (qualifier value)"
        } ]
      },
      "category": [ {
        "coding": [ {
          "system": "http://snomed.info/sct",
          "code": "788415003",
          "display": "Transplant medicine (qualifier value)"
        } ]
      } ],
      "code": {
        "coding": [ {
          "system": "http://fhir.de/CodeSystem/dimdi/icd-10-gm",
          "version": "2021",
          "code": "Z94.9"
        } ]
      },
      "bodySite": [ {
        "coding": [ {
          "system": "http://snomed.info/sct",
          "code": "41845008"
        } ]
      } ],
      "subject": {
        "reference": "Patient/debc4b76df75a6a49a868d38d812ab4dcd2cf9c135339c35fa1ab482a467b948"
      },
      "encounter": {
        "reference": "Encounter/47fc088525418d0924dce79fa81a62046f09a53da06f32615b920d159114a675"
      },
      "_recordedDate": {
        "extension": [ {
          "url": "http://hl7.org/fhir/StructureDefinition/data-absent-reason",
          "valueCode": "unknown"
        } ]
      }
    },
    "request": {
      "method": "POST",
      "url": "Condition",
      "ifNoneExist": "identifier=https://mein.krankenhaus.de/fhir/NamingSystem/conditionId|b89c6cfd783d3ce1a0bd28620d41e8a916d42703cd32ba33bd46dad203b80425"
    }
  }, {
    "fullUrl": "Condition/4b74438d567e7b566b789b3129d6e3cbbe18884f36ee7f9886d12f3e68a94879",
    "resource": {
      "resourceType": "Condition",
      "meta": {
        "profile": [ "https://www.netzwerk-universitaetsmedizin.de/fhir/StructureDefinition/organ-recipient" ]
      },
      "identifier": [ {
        "system": "https://mein.krankenhaus.de/fhir/NamingSystem/conditionId",
        "value": "54bab767801aaee7e51059dd0dd3911a397d14982d8f917dc386ad1d7be132ec"
      } ],
      "clinicalStatus": {
        "coding": [ {
          "system": "http://terminology.hl7.org/CodeSystem/condition-clinical",
          "code": "active",
          "display": "Active"
        } ]
      },
      "verificationStatus": {
        "coding": [ {
          "system": "http://terminology.hl7.org/CodeSystem/condition-ver-status",
          "code": "confirmed",
          "display": "Confirmed"
        }, {
          "system": "http://snomed.info/sct",
          "code": "410605003",
          "display": "Confirmed present (qualifier value)"
        } ]
      },
      "category": [ {
        "coding": [ {
          "system": "http://snomed.info/sct",
          "code": "788415003",
          "display": "Transplant medicine (qualifier value)"
        } ]
      } ],
      "code": {
        "coding": [ {
          "system": "http://fhir.de/CodeSystem/dimdi/icd-10-gm",
          "version": "2021",
          "code": "Z95.5"
        } ]
      },
      "bodySite": [ {
        "coding": [ {
          "system": "http://snomed.info/sct",
          "code": "119206002"
        } ]
      } ],
      "subject": {
        "reference": "Patient/debc4b76df75a6a49a868d38d812ab4dcd2cf9c135339c35fa1ab482a467b948"
      },
      "encounter": {
        "reference": "Encounter/47fc088525418d0924dce79fa81a62046f09a53da06f32615b920d159114a675"
      },
      "_recordedDate": {
        "extension": [ {
          "url": "http://hl7.org/fhir/StructureDefinition/data-absent-reason",
          "valueCode": "unknown"
        } ]
      }
    },
    "request": {
      "method": "POST",
      "url": "Condition",
      "ifNoneExist": "identifier=https://mein.krankenhaus.de/fhir/NamingSystem/conditionId|4b74438d567e7b566b789b3129d6e3cbbe18884f36ee7f9886d12f3e68a94879"
    }
  }, {
    "fullUrl": "Condition/53750e94c7a3a0c2edd84a9cfc082eed1d455e7d1061421e2d2736957b2f6dce",
    "resource": {
      "resourceType": "Condition",
      "meta": {
        "profile": [ "https://www.netzwerk-universitaetsmedizin.de/fhir/StructureDefinition/organ-recipient" ]
      },
      "modifierExtension": [ {
        "url": "https://www.netzwerk-universitaetsmedizin.de/fhir/StructureDefinition/uncertainty-of-presence",
        "valueCodeableConcept": {
          "coding": [ {
            "system": "http://snomed.info/sct",
            "code": "261665006",
            "display": "Unknown (qualifier value)"
          } ],
          "text": "Presence unknown."
        }
      } ],
      "identifier": [ {
        "system": "https://mein.krankenhaus.de/fhir/NamingSystem/conditionId",
        "value": "c964e6c2368c984afbd8e7bae57528ac597d4178388c5f1495dfae09cad9e374"
      } ],
      "category": [ {
        "coding": [ {
          "system": "http://snomed.info/sct",
          "code": "788415003",
          "display": "Transplant medicine (qualifier value)"
        } ]
      } ],
      "code": {
        "coding": [ {
          "system": "http://fhir.de/CodeSystem/dimdi/icd-10-gm",
          "version": "2021",
          "code": "Z94.9"
        } ]
      },
      "bodySite": [ {
        "coding": [ {
          "system": "http://snomed.info/sct",
          "code": "8935007"
        } ]
      } ],
      "subject": {
        "reference": "Patient/debc4b76df75a6a49a868d38d812ab4dcd2cf9c135339c35fa1ab482a467b948"
      },
      "encounter": {
        "reference": "Encounter/47fc088525418d0924dce79fa81a62046f09a53da06f32615b920d159114a675"
      },
      "_recordedDate": {
        "extension": [ {
          "url": "http://hl7.org/fhir/StructureDefinition/data-absent-reason",
          "valueCode": "unknown"
        } ]
      }
    },
    "request": {
      "method": "POST",
      "url": "Condition",
      "ifNoneExist": "identifier=https://mein.krankenhaus.de/fhir/NamingSystem/conditionId|53750e94c7a3a0c2edd84a9cfc082eed1d455e7d1061421e2d2736957b2f6dce"
    }
  }, {
    "fullUrl": "Condition/e002bc67f83aadf685d13ecf0a880a4e48e80b96d734694f34621aeac7a074cb",
    "resource": {
      "resourceType": "Condition",
      "meta": {
        "profile": [ "https://www.netzwerk-universitaetsmedizin.de/fhir/StructureDefinition/organ-recipient" ]
      },
      "modifierExtension": [ {
        "url": "https://www.netzwerk-universitaetsmedizin.de/fhir/StructureDefinition/uncertainty-of-presence",
        "valueCodeableConcept": {
          "coding": [ {
            "system": "http://snomed.info/sct",
            "code": "261665006",
            "display": "Unknown (qualifier value)"
          } ],
          "text": "Presence unknown."
        }
      } ],
      "identifier": [ {
        "system": "https://mein.krankenhaus.de/fhir/NamingSystem/conditionId",
        "value": "e30f3beab07aebb853989cf9ea6377fce1a6a070ec175e0f19408813b962dc8a"
      } ],
      "category": [ {
        "coding": [ {
          "system": "http://snomed.info/sct",
          "code": "788415003",
          "display": "Transplant medicine (qualifier value)"
        } ]
      } ],
      "code": {
        "coding": [ {
          "system": "http://fhir.de/CodeSystem/dimdi/icd-10-gm",
          "version": "2021",
          "code": "Z94.6"
        } ]
      },
      "bodySite": [ {
        "coding": [ {
          "system": "http://snomed.info/sct",
          "code": "3138006"
        } ]
      } ],
      "subject": {
        "reference": "Patient/debc4b76df75a6a49a868d38d812ab4dcd2cf9c135339c35fa1ab482a467b948"
      },
      "encounter": {
        "reference": "Encounter/47fc088525418d0924dce79fa81a62046f09a53da06f32615b920d159114a675"
      },
      "_recordedDate": {
        "extension": [ {
          "url": "http://hl7.org/fhir/StructureDefinition/data-absent-reason",
          "valueCode": "unknown"
        } ]
      }
    },
    "request": {
      "method": "POST",
      "url": "Condition",
      "ifNoneExist": "identifier=https://mein.krankenhaus.de/fhir/NamingSystem/conditionId|e002bc67f83aadf685d13ecf0a880a4e48e80b96d734694f34621aeac7a074cb"
    }
  }, {
    "fullUrl": "Condition/2d8263a1607dd0e1b7386a64fa985b7c6fac06e1599488defdd5e8042e143a20",
    "resource": {
      "resourceType": "Condition",
      "meta": {
        "profile": [ "https://www.netzwerk-universitaetsmedizin.de/fhir/StructureDefinition/organ-recipient" ]
      },
      "identifier": [ {
        "system": "https://mein.krankenhaus.de/fhir/NamingSystem/conditionId",
        "value": "b950529e50d8a8a22e1d9c7ea674815aa2b70fd8d562770ed5c5bb24895272b8"
      } ],
      "clinicalStatus": {
        "coding": [ {
          "system": "http://terminology.hl7.org/CodeSystem/condition-clinical",
          "code": "active",
          "display": "Active"
        } ]
      },
      "verificationStatus": {
        "coding": [ {
          "system": "http://terminology.hl7.org/CodeSystem/condition-ver-status",
          "code": "confirmed",
          "display": "Confirmed"
        }, {
          "system": "http://snomed.info/sct",
          "code": "410605003",
          "display": "Confirmed present (qualifier value)"
        } ]
      },
      "category": [ {
        "coding": [ {
          "system": "http://snomed.info/sct",
          "code": "788415003",
          "display": "Transplant medicine (qualifier value)"
        } ]
      } ],
      "code": {
        "coding": [ {
          "system": "http://fhir.de/CodeSystem/dimdi/icd-10-gm",
          "version": "2021",
          "code": "Z94.9"
        } ]
      },
      "bodySite": [ {
        "coding": [ {
          "system": "http://snomed.info/sct",
          "code": "309312004"
        } ]
      } ],
      "subject": {
        "reference": "Patient/debc4b76df75a6a49a868d38d812ab4dcd2cf9c135339c35fa1ab482a467b948"
      },
      "encounter": {
        "reference": "Encounter/47fc088525418d0924dce79fa81a62046f09a53da06f32615b920d159114a675"
      },
      "_recordedDate": {
        "extension": [ {
          "url": "http://hl7.org/fhir/StructureDefinition/data-absent-reason",
          "valueCode": "unknown"
        } ]
      }
    },
    "request": {
      "method": "POST",
      "url": "Condition",
      "ifNoneExist": "identifier=https://mein.krankenhaus.de/fhir/NamingSystem/conditionId|2d8263a1607dd0e1b7386a64fa985b7c6fac06e1599488defdd5e8042e143a20"
    }
  }, {
    "fullUrl": "Condition/240269f187a57c4b7211bb58806a4668fec7ccd6a847617d0cc122555ff3507f",
    "resource": {
      "resourceType": "Condition",
      "meta": {
        "profile": [ "https://www.netzwerk-universitaetsmedizin.de/fhir/StructureDefinition/organ-recipient" ]
      },
      "identifier": [ {
        "system": "https://mein.krankenhaus.de/fhir/NamingSystem/conditionId",
        "value": "98697bb9643cab4eaa0ec98b83eb3d96c061f0ca99c604190317ada5876f074e"
      } ],
      "verificationStatus": {
        "coding": [ {
          "system": "http://terminology.hl7.org/CodeSystem/condition-ver-status",
          "code": "refuted",
          "display": "Refuted"
        }, {
          "system": "http://snomed.info/sct",
          "code": "410594000",
          "display": "Definitely NOT present (qualifier value)"
        } ]
      },
      "category": [ {
        "coding": [ {
          "system": "http://snomed.info/sct",
          "code": "788415003",
          "display": "Transplant medicine (qualifier value)"
        } ]
      } ],
      "code": {
        "coding": [ {
          "system": "http://fhir.de/CodeSystem/dimdi/icd-10-gm",
          "version": "2021",
          "code": "Z94.9"
        } ]
      },
      "bodySite": [ {
        "coding": [ {
          "system": "http://snomed.info/sct",
          "code": "13024002"
        } ]
      } ],
      "subject": {
        "reference": "Patient/debc4b76df75a6a49a868d38d812ab4dcd2cf9c135339c35fa1ab482a467b948"
      },
      "encounter": {
        "reference": "Encounter/47fc088525418d0924dce79fa81a62046f09a53da06f32615b920d159114a675"
      },
      "_recordedDate": {
        "extension": [ {
          "url": "http://hl7.org/fhir/StructureDefinition/data-absent-reason",
          "valueCode": "unknown"
        } ]
      }
    },
    "request": {
      "method": "POST",
      "url": "Condition",
      "ifNoneExist": "identifier=https://mein.krankenhaus.de/fhir/NamingSystem/conditionId|240269f187a57c4b7211bb58806a4668fec7ccd6a847617d0cc122555ff3507f"
    }
  }, {
    "fullUrl": "Condition/1728565046b42d90a76e32061681c4e0c631ae2645edb1fb414eceb0ceed39ee",
    "resource": {
      "resourceType": "Condition",
      "meta": {
        "profile": [ "https://www.netzwerk-universitaetsmedizin.de/fhir/StructureDefinition/diabetes-mellitus" ]
      },
      "identifier": [ {
        "system": "https://mein.krankenhaus.de/fhir/NamingSystem/conditionId",
        "value": "7442196ded1cb65451810e8f615b7e4c95e1d2cbe8fa2edd5e3367c41c988777"
      } ],
      "verificationStatus": {
        "coding": [ {
          "system": "http://terminology.hl7.org/CodeSystem/condition-ver-status",
          "code": "confirmed",
          "display": "Confirmed"
        }, {
          "system": "http://snomed.info/sct",
          "code": "410605003",
          "display": "Confirmed present (qualifier value)"
        } ]
      },
      "category": [ {
        "coding": [ {
          "system": "http://snomed.info/sct",
          "code": "408475000",
          "display": "Diabetic medicine (qualifier value)"
        } ]
      } ],
      "code": {
        "coding": [ {
          "system": "http://fhir.de/CodeSystem/dimdi/icd-10-gm",
          "version": "2021",
          "code": "E10.9"
        }, {
          "system": "http://snomed.info/sct",
          "code": "46635009"
        } ]
      },
      "subject": {
        "reference": "Patient/debc4b76df75a6a49a868d38d812ab4dcd2cf9c135339c35fa1ab482a467b948"
      },
      "encounter": {
        "reference": "Encounter/47fc088525418d0924dce79fa81a62046f09a53da06f32615b920d159114a675"
      },
      "_recordedDate": {
        "extension": [ {
          "url": "http://hl7.org/fhir/StructureDefinition/data-absent-reason",
          "valueCode": "unknown"
        } ]
      }
    },
    "request": {
      "method": "POST",
      "url": "Condition",
      "ifNoneExist": "identifier=https://mein.krankenhaus.de/fhir/NamingSystem/conditionId|1728565046b42d90a76e32061681c4e0c631ae2645edb1fb414eceb0ceed39ee"
    }
  }, {
    "fullUrl": "Condition/7fafd11e410cc33787d4a5ffa596f5e733702a93d3d36702bd0b8ad5477244b9",
    "resource": {
      "resourceType": "Condition",
      "meta": {
        "profile": [ "https://www.netzwerk-universitaetsmedizin.de/fhir/StructureDefinition/malignant-neoplastic-disease" ]
      },
      "modifierExtension": [ {
        "url": "https://www.netzwerk-universitaetsmedizin.de/fhir/StructureDefinition/uncertainty-of-presence",
        "valueCodeableConcept": {
          "coding": [ {
            "system": "http://snomed.info/sct",
            "code": "261665006",
            "display": "Unknown (qualifier value)"
          } ],
          "text": "Presence unknown."
        }
      } ],
      "identifier": [ {
        "system": "https://mein.krankenhaus.de/fhir/NamingSystem/conditionId",
        "value": "b0a5c8a36383b60763383b28e47ae1dc1d184f4b75e23b55f05ae5f94e08a4d8"
      } ],
      "category": [ {
        "coding": [ {
          "system": "http://snomed.info/sct",
          "code": "394593009",
          "display": "Medical oncology (qualifier value)"
        } ]
      } ],
      "code": {
        "coding": [ {
          "system": "http://fhir.de/CodeSystem/dimdi/icd-10-gm",
          "version": "2021",
          "code": "C80.9"
        }, {
          "system": "http://snomed.info/sct",
          "code": "363346000"
        } ]
      },
      "subject": {
        "reference": "Patient/debc4b76df75a6a49a868d38d812ab4dcd2cf9c135339c35fa1ab482a467b948"
      },
      "encounter": {
        "reference": "Encounter/47fc088525418d0924dce79fa81a62046f09a53da06f32615b920d159114a675"
      },
      "_recordedDate": {
        "extension": [ {
          "url": "http://hl7.org/fhir/StructureDefinition/data-absent-reason",
          "valueCode": "unknown"
        } ]
      }
    },
    "request": {
      "method": "POST",
      "url": "Condition",
      "ifNoneExist": "identifier=https://mein.krankenhaus.de/fhir/NamingSystem/conditionId|7fafd11e410cc33787d4a5ffa596f5e733702a93d3d36702bd0b8ad5477244b9"
    }
  }, {
    "fullUrl": "Condition/4482166a009e7e070e31c79cafbe33a87bdd3a49ce4d48eb3b89b718335081eb",
    "resource": {
      "resourceType": "Condition",
      "meta": {
        "profile": [ "https://www.netzwerk-universitaetsmedizin.de/fhir/StructureDefinition/chronic-neurological-mental-diseases" ]
      },
      "identifier": [ {
        "system": "https://mein.krankenhaus.de/fhir/NamingSystem/conditionId",
        "value": "a2eec6bbbb3ca9375f441bb08bb20fe8e1354c980d6fbc815e3b5bbf4d39ccbc"
      } ],
      "verificationStatus": {
        "coding": [ {
          "system": "http://terminology.hl7.org/CodeSystem/condition-ver-status",
          "code": "refuted",
          "display": "Refuted"
        }, {
          "system": "http://snomed.info/sct",
          "code": "410594000",
          "display": "Definitely NOT present (qualifier value)"
        } ]
      },
      "category": [ {
        "coding": [ {
          "system": "http://snomed.info/sct",
          "code": "394591006",
          "display": "Neurology (qualifier value)"
        }, {
          "system": "http://snomed.info/sct",
          "code": "394587001",
          "display": "Psychiatry (qualifier value)"
        } ]
      } ],
      "code": {
        "coding": [ {
          "system": "http://fhir.de/CodeSystem/dimdi/icd-10-gm",
          "version": "2021",
          "code": "G20"
        }, {
          "system": "http://snomed.info/sct",
          "code": "49049000"
        } ]
      },
      "subject": {
        "reference": "Patient/debc4b76df75a6a49a868d38d812ab4dcd2cf9c135339c35fa1ab482a467b948"
      },
      "encounter": {
        "reference": "Encounter/47fc088525418d0924dce79fa81a62046f09a53da06f32615b920d159114a675"
      },
      "_recordedDate": {
        "extension": [ {
          "url": "http://hl7.org/fhir/StructureDefinition/data-absent-reason",
          "valueCode": "unknown"
        } ]
      }
    },
    "request": {
      "method": "POST",
      "url": "Condition",
      "ifNoneExist": "identifier=https://mein.krankenhaus.de/fhir/NamingSystem/conditionId|4482166a009e7e070e31c79cafbe33a87bdd3a49ce4d48eb3b89b718335081eb"
    }
  }, {
    "fullUrl": "Condition/a16a9ed446c33368b9f4a3eed5a61955e534b6e980de8e1ca76f8c63a032207c",
    "resource": {
      "resourceType": "Condition",
      "meta": {
        "profile": [ "https://www.netzwerk-universitaetsmedizin.de/fhir/StructureDefinition/chronic-neurological-mental-diseases" ]
      },
      "identifier": [ {
        "system": "https://mein.krankenhaus.de/fhir/NamingSystem/conditionId",
        "value": "7cea82d580e3fe9fdd1d49bddb4a2ab408af5cc63a46e99b7e3c9a62c0700296"
      } ],
      "verificationStatus": {
        "coding": [ {
          "system": "http://terminology.hl7.org/CodeSystem/condition-ver-status",
          "code": "refuted",
          "display": "Refuted"
        }, {
          "system": "http://snomed.info/sct",
          "code": "410594000",
          "display": "Definitely NOT present (qualifier value)"
        } ]
      },
      "category": [ {
        "coding": [ {
          "system": "http://snomed.info/sct",
          "code": "394591006",
          "display": "Neurology (qualifier value)"
        }, {
          "system": "http://snomed.info/sct",
          "code": "394587001",
          "display": "Psychiatry (qualifier value)"
        } ]
      } ],
      "code": {
        "coding": [ {
          "system": "http://fhir.de/CodeSystem/dimdi/icd-10-gm",
          "version": "2021",
          "code": "F03"
        }, {
          "system": "http://snomed.info/sct",
          "code": "52448006"
        } ]
      },
      "subject": {
        "reference": "Patient/debc4b76df75a6a49a868d38d812ab4dcd2cf9c135339c35fa1ab482a467b948"
      },
      "encounter": {
        "reference": "Encounter/47fc088525418d0924dce79fa81a62046f09a53da06f32615b920d159114a675"
      },
      "_recordedDate": {
        "extension": [ {
          "url": "http://hl7.org/fhir/StructureDefinition/data-absent-reason",
          "valueCode": "unknown"
        } ]
      }
    },
    "request": {
      "method": "POST",
      "url": "Condition",
      "ifNoneExist": "identifier=https://mein.krankenhaus.de/fhir/NamingSystem/conditionId|a16a9ed446c33368b9f4a3eed5a61955e534b6e980de8e1ca76f8c63a032207c"
    }
  }, {
    "fullUrl": "Condition/98cd75b20815749cd71e134b8caa105c47ff57d0709c04c42298d471fe1b959d",
    "resource": {
      "resourceType": "Condition",
      "meta": {
        "profile": [ "https://www.netzwerk-universitaetsmedizin.de/fhir/StructureDefinition/chronic-neurological-mental-diseases" ]
      },
      "identifier": [ {
        "system": "https://mein.krankenhaus.de/fhir/NamingSystem/conditionId",
        "value": "90d167bd27d361b2707825c4c42cb03371531b46a6fb4b798173e708c6a278d6"
      } ],
      "verificationStatus": {
        "coding": [ {
          "system": "http://terminology.hl7.org/CodeSystem/condition-ver-status",
          "code": "refuted",
          "display": "Refuted"
        }, {
          "system": "http://snomed.info/sct",
          "code": "410594000",
          "display": "Definitely NOT present (qualifier value)"
        } ]
      },
      "category": [ {
        "coding": [ {
          "system": "http://snomed.info/sct",
          "code": "394591006",
          "display": "Neurology (qualifier value)"
        }, {
          "system": "http://snomed.info/sct",
          "code": "394587001",
          "display": "Psychiatry (qualifier value)"
        } ]
      } ],
      "code": {
        "coding": [ {
          "system": "http://fhir.de/CodeSystem/dimdi/icd-10-gm",
          "version": "2021",
          "code": "G35"
        }, {
          "system": "http://snomed.info/sct",
          "code": "24700007"
        } ]
      },
      "subject": {
        "reference": "Patient/debc4b76df75a6a49a868d38d812ab4dcd2cf9c135339c35fa1ab482a467b948"
      },
      "encounter": {
        "reference": "Encounter/47fc088525418d0924dce79fa81a62046f09a53da06f32615b920d159114a675"
      },
      "_recordedDate": {
        "extension": [ {
          "url": "http://hl7.org/fhir/StructureDefinition/data-absent-reason",
          "valueCode": "unknown"
        } ]
      }
    },
    "request": {
      "method": "POST",
      "url": "Condition",
      "ifNoneExist": "identifier=https://mein.krankenhaus.de/fhir/NamingSystem/conditionId|98cd75b20815749cd71e134b8caa105c47ff57d0709c04c42298d471fe1b959d"
    }
  }, {
    "fullUrl": "Condition/e286f8ec41569d42fb322aa0dda34a36e82ca95e38656a8260d629af91a02560",
    "resource": {
      "resourceType": "Condition",
      "meta": {
        "profile": [ "https://www.netzwerk-universitaetsmedizin.de/fhir/StructureDefinition/chronic-neurological-mental-diseases" ]
      },
      "modifierExtension": [ {
        "url": "https://www.netzwerk-universitaetsmedizin.de/fhir/StructureDefinition/uncertainty-of-presence",
        "valueCodeableConcept": {
          "coding": [ {
            "system": "http://snomed.info/sct",
            "code": "261665006",
            "display": "Unknown (qualifier value)"
          } ],
          "text": "Presence unknown."
        }
      } ],
      "identifier": [ {
        "system": "https://mein.krankenhaus.de/fhir/NamingSystem/conditionId",
        "value": "210bf0d5a2e961ca8040bd85fb57da5d544ab6cc8b769fce3aebdae74abced18"
      } ],
      "category": [ {
        "coding": [ {
          "system": "http://snomed.info/sct",
          "code": "394591006",
          "display": "Neurology (qualifier value)"
        }, {
          "system": "http://snomed.info/sct",
          "code": "394587001",
          "display": "Psychiatry (qualifier value)"
        } ]
      } ],
      "code": {
        "coding": [ {
          "system": "http://fhir.de/CodeSystem/dimdi/icd-10-gm",
          "version": "2021",
          "code": "G70.9"
        }, {
          "system": "http://snomed.info/sct",
          "code": "257277002"
        } ]
      },
      "subject": {
        "reference": "Patient/debc4b76df75a6a49a868d38d812ab4dcd2cf9c135339c35fa1ab482a467b948"
      },
      "encounter": {
        "reference": "Encounter/47fc088525418d0924dce79fa81a62046f09a53da06f32615b920d159114a675"
      },
      "_recordedDate": {
        "extension": [ {
          "url": "http://hl7.org/fhir/StructureDefinition/data-absent-reason",
          "valueCode": "unknown"
        } ]
      }
    },
    "request": {
      "method": "POST",
      "url": "Condition",
      "ifNoneExist": "identifier=https://mein.krankenhaus.de/fhir/NamingSystem/conditionId|e286f8ec41569d42fb322aa0dda34a36e82ca95e38656a8260d629af91a02560"
    }
  }, {
    "fullUrl": "Condition/27c2c9b3e22f2774989da276ba335ad85285979d9e0dfbd6b591e0967b20d60a",
    "resource": {
      "resourceType": "Condition",
      "meta": {
        "profile": [ "https://www.netzwerk-universitaetsmedizin.de/fhir/StructureDefinition/chronic-neurological-mental-diseases" ]
      },
      "identifier": [ {
        "system": "https://mein.krankenhaus.de/fhir/NamingSystem/conditionId",
        "value": "4f9bc7915d7eeef8ce003af30e7e09e74bc34e6dec16e0e12e3607db0c3285af"
      } ],
      "clinicalStatus": {
        "coding": [ {
          "system": "http://terminology.hl7.org/CodeSystem/condition-clinical",
          "code": "active",
          "display": "Active"
        } ]
      },
      "verificationStatus": {
        "coding": [ {
          "system": "http://terminology.hl7.org/CodeSystem/condition-ver-status",
          "code": "confirmed",
          "display": "Confirmed"
        }, {
          "system": "http://snomed.info/sct",
          "code": "410605003",
          "display": "Confirmed present (qualifier value)"
        } ]
      },
      "category": [ {
        "coding": [ {
          "system": "http://snomed.info/sct",
          "code": "394591006",
          "display": "Neurology (qualifier value)"
        }, {
          "system": "http://snomed.info/sct",
          "code": "394587001",
          "display": "Psychiatry (qualifier value)"
        } ]
      } ],
      "code": {
        "coding": [ {
          "system": "http://fhir.de/CodeSystem/dimdi/icd-10-gm",
          "version": "2021",
          "code": "G40.9"
        }, {
          "system": "http://snomed.info/sct",
          "code": "84757009"
        } ]
      },
      "subject": {
        "reference": "Patient/debc4b76df75a6a49a868d38d812ab4dcd2cf9c135339c35fa1ab482a467b948"
      },
      "encounter": {
        "reference": "Encounter/47fc088525418d0924dce79fa81a62046f09a53da06f32615b920d159114a675"
      },
      "_recordedDate": {
        "extension": [ {
          "url": "http://hl7.org/fhir/StructureDefinition/data-absent-reason",
          "valueCode": "unknown"
        } ]
      }
    },
    "request": {
      "method": "POST",
      "url": "Condition",
      "ifNoneExist": "identifier=https://mein.krankenhaus.de/fhir/NamingSystem/conditionId|27c2c9b3e22f2774989da276ba335ad85285979d9e0dfbd6b591e0967b20d60a"
    }
  }, {
    "fullUrl": "Condition/14e43e910d5bca5dda9b2ce5559c0caa5e8266c2187f684e7f9b20e320faba36",
    "resource": {
      "resourceType": "Condition",
      "meta": {
        "profile": [ "https://www.netzwerk-universitaetsmedizin.de/fhir/StructureDefinition/chronic-neurological-mental-diseases" ]
      },
      "identifier": [ {
        "system": "https://mein.krankenhaus.de/fhir/NamingSystem/conditionId",
        "value": "8aa9428d9daa9a6e806673cdf55caa638039119710032adac7cb063e9ca10ec7"
      } ],
      "clinicalStatus": {
        "coding": [ {
          "system": "http://terminology.hl7.org/CodeSystem/condition-clinical",
          "code": "active",
          "display": "Active"
        } ]
      },
      "verificationStatus": {
        "coding": [ {
          "system": "http://terminology.hl7.org/CodeSystem/condition-ver-status",
          "code": "confirmed",
          "display": "Confirmed"
        }, {
          "system": "http://snomed.info/sct",
          "code": "410605003",
          "display": "Confirmed present (qualifier value)"
        } ]
      },
      "category": [ {
        "coding": [ {
          "system": "http://snomed.info/sct",
          "code": "394591006",
          "display": "Neurology (qualifier value)"
        }, {
          "system": "http://snomed.info/sct",
          "code": "394587001",
          "display": "Psychiatry (qualifier value)"
        } ]
      } ],
      "code": {
        "coding": [ {
          "system": "http://fhir.de/CodeSystem/dimdi/icd-10-gm",
          "version": "2021",
          "code": "I69.4"
        }, {
          "system": "http://snomed.info/sct",
          "code": "440140008"
        } ]
      },
      "subject": {
        "reference": "Patient/debc4b76df75a6a49a868d38d812ab4dcd2cf9c135339c35fa1ab482a467b948"
      },
      "encounter": {
        "reference": "Encounter/47fc088525418d0924dce79fa81a62046f09a53da06f32615b920d159114a675"
      },
      "_recordedDate": {
        "extension": [ {
          "url": "http://hl7.org/fhir/StructureDefinition/data-absent-reason",
          "valueCode": "unknown"
        } ]
      }
    },
    "request": {
      "method": "POST",
      "url": "Condition",
      "ifNoneExist": "identifier=https://mein.krankenhaus.de/fhir/NamingSystem/conditionId|14e43e910d5bca5dda9b2ce5559c0caa5e8266c2187f684e7f9b20e320faba36"
    }
  }, {
    "fullUrl": "Condition/d619f67a2d7ea1827e8889d6dca0610ae9a2d74c728df33ed2c4187c8e63e0db",
    "resource": {
      "resourceType": "Condition",
      "meta": {
        "profile": [ "https://www.netzwerk-universitaetsmedizin.de/fhir/StructureDefinition/chronic-neurological-mental-diseases" ]
      },
      "identifier": [ {
        "system": "https://mein.krankenhaus.de/fhir/NamingSystem/conditionId",
        "value": "b462560cd737ff74ff5b85cc2aea0f9adcff3a3473c2f0fe762dd9231091c4a0"
      } ],
      "clinicalStatus": {
        "coding": [ {
          "system": "http://terminology.hl7.org/CodeSystem/condition-clinical",
          "code": "active",
          "display": "Active"
        } ]
      },
      "verificationStatus": {
        "coding": [ {
          "system": "http://terminology.hl7.org/CodeSystem/condition-ver-status",
          "code": "confirmed",
          "display": "Confirmed"
        }, {
          "system": "http://snomed.info/sct",
          "code": "410605003",
          "display": "Confirmed present (qualifier value)"
        } ]
      },
      "category": [ {
        "coding": [ {
          "system": "http://snomed.info/sct",
          "code": "394591006",
          "display": "Neurology (qualifier value)"
        }, {
          "system": "http://snomed.info/sct",
          "code": "394587001",
          "display": "Psychiatry (qualifier value)"
        } ]
      } ],
      "code": {
        "coding": [ {
          "system": "http://fhir.de/CodeSystem/dimdi/icd-10-gm",
          "version": "2021",
          "code": "Z86.7"
        }, {
          "system": "http://snomed.info/sct",
          "code": "429993008"
        } ]
      },
      "subject": {
        "reference": "Patient/debc4b76df75a6a49a868d38d812ab4dcd2cf9c135339c35fa1ab482a467b948"
      },
      "encounter": {
        "reference": "Encounter/47fc088525418d0924dce79fa81a62046f09a53da06f32615b920d159114a675"
      },
      "_recordedDate": {
        "extension": [ {
          "url": "http://hl7.org/fhir/StructureDefinition/data-absent-reason",
          "valueCode": "unknown"
        } ]
      }
    },
    "request": {
      "method": "POST",
      "url": "Condition",
      "ifNoneExist": "identifier=https://mein.krankenhaus.de/fhir/NamingSystem/conditionId|d619f67a2d7ea1827e8889d6dca0610ae9a2d74c728df33ed2c4187c8e63e0db"
    }
  }, {
    "fullUrl": "Condition/b4681fae889d665c78e88995b9c4afb03be2a4629939e0d8fb63c24723c98432",
    "resource": {
      "resourceType": "Condition",
      "meta": {
        "profile": [ "https://www.netzwerk-universitaetsmedizin.de/fhir/StructureDefinition/chronic-neurological-mental-diseases" ]
      },
      "identifier": [ {
        "system": "https://mein.krankenhaus.de/fhir/NamingSystem/conditionId",
        "value": "ea4f0171aedd9a8df1a88289d395ee318b6d67b428722f285188d91169a91fb4"
      } ],
      "verificationStatus": {
        "coding": [ {
          "system": "http://terminology.hl7.org/CodeSystem/condition-ver-status",
          "code": "refuted",
          "display": "Refuted"
        }, {
          "system": "http://snomed.info/sct",
          "code": "410594000",
          "display": "Definitely NOT present (qualifier value)"
        } ]
      },
      "category": [ {
        "coding": [ {
          "system": "http://snomed.info/sct",
          "code": "394591006",
          "display": "Neurology (qualifier value)"
        }, {
          "system": "http://snomed.info/sct",
          "code": "394587001",
          "display": "Psychiatry (qualifier value)"
        } ]
      } ],
      "code": {
        "coding": [ {
          "system": "http://fhir.de/CodeSystem/dimdi/icd-10-gm",
          "version": "2021",
          "code": "F29"
        }, {
          "system": "http://snomed.info/sct",
          "code": "69322001"
        } ]
      },
      "subject": {
        "reference": "Patient/debc4b76df75a6a49a868d38d812ab4dcd2cf9c135339c35fa1ab482a467b948"
      },
      "encounter": {
        "reference": "Encounter/47fc088525418d0924dce79fa81a62046f09a53da06f32615b920d159114a675"
      },
      "_recordedDate": {
        "extension": [ {
          "url": "http://hl7.org/fhir/StructureDefinition/data-absent-reason",
          "valueCode": "unknown"
        } ]
      }
    },
    "request": {
      "method": "POST",
      "url": "Condition",
      "ifNoneExist": "identifier=https://mein.krankenhaus.de/fhir/NamingSystem/conditionId|b4681fae889d665c78e88995b9c4afb03be2a4629939e0d8fb63c24723c98432"
    }
  }, {
    "fullUrl": "Condition/ca9874779698f57a29d05ee74956205191316e7f98ebd3522d971478ba47d4d4",
    "resource": {
      "resourceType": "Condition",
      "meta": {
        "profile": [ "https://www.netzwerk-universitaetsmedizin.de/fhir/StructureDefinition/chronic-neurological-mental-diseases" ]
      },
      "identifier": [ {
        "system": "https://mein.krankenhaus.de/fhir/NamingSystem/conditionId",
        "value": "009b684215243db4fa721ecaadcdcefbd86a57f7a5d9be7870642b2c8b3bd182"
      } ],
      "verificationStatus": {
        "coding": [ {
          "system": "http://terminology.hl7.org/CodeSystem/condition-ver-status",
          "code": "refuted",
          "display": "Refuted"
        }, {
          "system": "http://snomed.info/sct",
          "code": "410594000",
          "display": "Definitely NOT present (qualifier value)"
        } ]
      },
      "category": [ {
        "coding": [ {
          "system": "http://snomed.info/sct",
          "code": "394591006",
          "display": "Neurology (qualifier value)"
        }, {
          "system": "http://snomed.info/sct",
          "code": "394587001",
          "display": "Psychiatry (qualifier value)"
        } ]
      } ],
      "code": {
        "coding": [ {
          "system": "http://fhir.de/CodeSystem/dimdi/icd-10-gm",
          "version": "2021",
          "code": "F32.9"
        }, {
          "system": "http://snomed.info/sct",
          "code": "35489007"
        } ]
      },
      "subject": {
        "reference": "Patient/debc4b76df75a6a49a868d38d812ab4dcd2cf9c135339c35fa1ab482a467b948"
      },
      "encounter": {
        "reference": "Encounter/47fc088525418d0924dce79fa81a62046f09a53da06f32615b920d159114a675"
      },
      "_recordedDate": {
        "extension": [ {
          "url": "http://hl7.org/fhir/StructureDefinition/data-absent-reason",
          "valueCode": "unknown"
        } ]
      }
    },
    "request": {
      "method": "POST",
      "url": "Condition",
      "ifNoneExist": "identifier=https://mein.krankenhaus.de/fhir/NamingSystem/conditionId|ca9874779698f57a29d05ee74956205191316e7f98ebd3522d971478ba47d4d4"
    }
  }, {
    "fullUrl": "Condition/24b3ac821601d91bc4ead276f1bc4e5dc92660e818795d62dc0509f87429a817",
    "resource": {
      "resourceType": "Condition",
      "meta": {
        "profile": [ "https://www.netzwerk-universitaetsmedizin.de/fhir/StructureDefinition/chronic-neurological-mental-diseases" ]
      },
      "modifierExtension": [ {
        "url": "https://www.netzwerk-universitaetsmedizin.de/fhir/StructureDefinition/uncertainty-of-presence",
        "valueCodeableConcept": {
          "coding": [ {
            "system": "http://snomed.info/sct",
            "code": "261665006",
            "display": "Unknown (qualifier value)"
          } ],
          "text": "Presence unknown."
        }
      } ],
      "identifier": [ {
        "system": "https://mein.krankenhaus.de/fhir/NamingSystem/conditionId",
        "value": "7f23a69b056f59563b8eb21b3f4e3bbefe975a47f3c5e4d0ef7c8079e3714b71"
      } ],
      "category": [ {
        "coding": [ {
          "system": "http://snomed.info/sct",
          "code": "394591006",
          "display": "Neurology (qualifier value)"
        }, {
          "system": "http://snomed.info/sct",
          "code": "394587001",
          "display": "Psychiatry (qualifier value)"
        } ]
      } ],
      "code": {
        "coding": [ {
          "system": "http://fhir.de/CodeSystem/dimdi/icd-10-gm",
          "version": "2021",
          "code": "F41.9"
        }, {
          "system": "http://snomed.info/sct",
          "code": "197480006"
        } ]
      },
      "subject": {
        "reference": "Patient/debc4b76df75a6a49a868d38d812ab4dcd2cf9c135339c35fa1ab482a467b948"
      },
      "encounter": {
        "reference": "Encounter/47fc088525418d0924dce79fa81a62046f09a53da06f32615b920d159114a675"
      },
      "_recordedDate": {
        "extension": [ {
          "url": "http://hl7.org/fhir/StructureDefinition/data-absent-reason",
          "valueCode": "unknown"
        } ]
      }
    },
    "request": {
      "method": "POST",
      "url": "Condition",
      "ifNoneExist": "identifier=https://mein.krankenhaus.de/fhir/NamingSystem/conditionId|24b3ac821601d91bc4ead276f1bc4e5dc92660e818795d62dc0509f87429a817"
    }
  }, {
    "fullUrl": "Condition/0e180cb0c98dcf7544b0e248a9af17e29d5d915a24735a258a207bf136d97060",
    "resource": {
      "resourceType": "Condition",
      "meta": {
        "profile": [ "https://www.netzwerk-universitaetsmedizin.de/fhir/StructureDefinition/chronic-kidney-diseases" ]
      },
      "identifier": [ {
        "system": "https://mein.krankenhaus.de/fhir/NamingSystem/conditionId",
        "value": "026274638852a6ebb4f99c7565df4b707fb792f73eafd3b42def0f5af64f21f2"
      } ],
      "clinicalStatus": {
        "coding": [ {
          "system": "http://terminology.hl7.org/CodeSystem/condition-clinical",
          "code": "active",
          "display": "Active"
        } ]
      },
      "verificationStatus": {
        "coding": [ {
          "system": "http://terminology.hl7.org/CodeSystem/condition-ver-status",
          "code": "confirmed",
          "display": "Confirmed"
        }, {
          "system": "http://snomed.info/sct",
          "code": "410605003",
          "display": "Confirmed present (qualifier value)"
        } ]
      },
      "category": [ {
        "coding": [ {
          "system": "http://snomed.info/sct",
          "code": "394589003",
          "display": "Nephrology (qualifier value)"
        } ]
      } ],
      "code": {
        "coding": [ {
          "system": "http://fhir.de/CodeSystem/dimdi/icd-10-gm",
          "version": "2021",
          "code": "Z99.2"
        }, {
          "system": "http://snomed.info/sct",
          "code": "714152005"
        } ]
      },
      "subject": {
        "reference": "Patient/debc4b76df75a6a49a868d38d812ab4dcd2cf9c135339c35fa1ab482a467b948"
      },
      "encounter": {
        "reference": "Encounter/47fc088525418d0924dce79fa81a62046f09a53da06f32615b920d159114a675"
      },
      "_recordedDate": {
        "extension": [ {
          "url": "http://hl7.org/fhir/StructureDefinition/data-absent-reason",
          "valueCode": "unknown"
        } ]
      }
    },
    "request": {
      "method": "POST",
      "url": "Condition",
      "ifNoneExist": "identifier=https://mein.krankenhaus.de/fhir/NamingSystem/conditionId|0e180cb0c98dcf7544b0e248a9af17e29d5d915a24735a258a207bf136d97060"
    }
  }, {
    "fullUrl": "Condition/cc21b03f6f684b8e8ea457bfa53011c297f8b7e5a0a21cf89efc83a773233038",
    "resource": {
      "resourceType": "Condition",
      "meta": {
        "profile": [ "https://www.netzwerk-universitaetsmedizin.de/fhir/StructureDefinition/gastrointestinal-ulcers" ]
      },
      "modifierExtension": [ {
        "url": "https://www.netzwerk-universitaetsmedizin.de/fhir/StructureDefinition/uncertainty-of-presence",
        "valueCodeableConcept": {
          "coding": [ {
            "system": "http://snomed.info/sct",
            "code": "261665006",
            "display": "Unknown (qualifier value)"
          } ],
          "text": "Presence unknown."
        }
      } ],
      "identifier": [ {
        "system": "https://mein.krankenhaus.de/fhir/NamingSystem/conditionId",
        "value": "bff8ac423bbc939c1bcf6c97348126115427279e89a9be924f6fb9a43b69d294"
      } ],
      "category": [ {
        "coding": [ {
          "system": "http://snomed.info/sct",
          "code": "394584008",
          "display": "Gastroenterology (qualifier value))"
        } ]
      } ],
      "code": {
        "coding": [ {
          "system": "http://fhir.de/CodeSystem/dimdi/icd-10-gm",
          "version": "2021",
          "code": "K28"
        }, {
          "system": "http://snomed.info/sct",
          "code": "40845000"
        } ]
      },
      "subject": {
        "reference": "Patient/debc4b76df75a6a49a868d38d812ab4dcd2cf9c135339c35fa1ab482a467b948"
      },
      "encounter": {
        "reference": "Encounter/47fc088525418d0924dce79fa81a62046f09a53da06f32615b920d159114a675"
      },
      "_recordedDate": {
        "extension": [ {
          "url": "http://hl7.org/fhir/StructureDefinition/data-absent-reason",
          "valueCode": "unknown"
        } ]
      }
    },
    "request": {
      "method": "POST",
      "url": "Condition",
      "ifNoneExist": "identifier=https://mein.krankenhaus.de/fhir/NamingSystem/conditionId|cc21b03f6f684b8e8ea457bfa53011c297f8b7e5a0a21cf89efc83a773233038"
    }
  }, {
    "fullUrl": "Observation/e15360ca22020b6a902acb74a84629e80e8d5fef1f9f55a910fb93cde3b4c135",
    "resource": {
      "resourceType": "Observation",
      "meta": {
        "profile": [ "https://www.netzwerk-universitaetsmedizin.de/fhir/StructureDefinition/smoking-status" ]
      },
      "identifier": [ {
        "system": "https://mein.krankenhaus.de/fhir/NamingSystem/observationId",
        "value": "14dbd22ef6b563e785313457f9bfa8fb30163b9806f91c4532812c96081d2187"
      } ],
      "status": "final",
      "category": [ {
        "coding": [ {
          "system": "http://terminology.hl7.org/CodeSystem/observation-category",
          "code": "social-history",
          "display": "Social History"
        } ]
      } ],
      "code": {
        "coding": [ {
          "system": "http://loinc.org",
          "code": "72166-2"
        } ]
      },
      "subject": {
        "reference": "Patient/debc4b76df75a6a49a868d38d812ab4dcd2cf9c135339c35fa1ab482a467b948"
      },
      "encounter": {
        "reference": "Encounter/47fc088525418d0924dce79fa81a62046f09a53da06f32615b920d159114a675"
      },
      "_effectiveDateTime": {
        "extension": [ {
          "url": "http://hl7.org/fhir/StructureDefinition/data-absent-reason",
          "valueCode": "unknown"
        } ]
      },
      "valueCodeableConcept": {
        "coding": [ {
          "system": "http://loinc.org",
          "code": "LA18976-3"
        } ]
      }
    },
    "request": {
      "method": "POST",
      "url": "Observation",
      "ifNoneExist": "identifier=https://mein.krankenhaus.de/fhir/NamingSystem/observationId|e15360ca22020b6a902acb74a84629e80e8d5fef1f9f55a910fb93cde3b4c135"
    }
  }, {
    "fullUrl": "Procedure/0860d0408b1138b00a1593c60ac02538eb5425f4bc124fbf7a01bc072bc89fb2",
    "resource": {
      "resourceType": "Procedure",
      "meta": {
        "profile": [ "https://www.netzwerk-universitaetsmedizin.de/fhir/StructureDefinition/respiratory-therapies" ]
      },
      "identifier": [ {
        "system": "https://mein.krankenhaus.de/fhir/NamingSystem/procedureId",
        "value": "66d24b7ac5d669bd2c7866136aa21233061ebab2e078919af874b8a17be18c1d"
      } ],
      "status": "not-done",
      "category": {
        "coding": [ {
          "system": "http://snomed.info/sct",
          "code": "277132007",
          "display": "Therapeutic procedure (procedure)"
        } ]
      },
      "code": {
        "coding": [ {
          "system": "http://snomed.info/sct",
          "code": "53950000"
        } ]
      },
      "subject": {
        "reference": "Patient/debc4b76df75a6a49a868d38d812ab4dcd2cf9c135339c35fa1ab482a467b948"
      },
      "encounter": {
        "reference": "Encounter/47fc088525418d0924dce79fa81a62046f09a53da06f32615b920d159114a675"
      },
      "_performedDateTime": {
        "extension": [ {
          "url": "http://hl7.org/fhir/StructureDefinition/data-absent-reason",
          "valueCode": "unknown"
        } ]
      }
    },
    "request": {
      "method": "POST",
      "url": "Procedure",
      "ifNoneExist": "identifier=https://mein.krankenhaus.de/fhir/NamingSystem/procedureId|0860d0408b1138b00a1593c60ac02538eb5425f4bc124fbf7a01bc072bc89fb2"
    }
  }, {
    "fullUrl": "Immunization/fccea33365bf8780ec60e85f7a77cc0a3432fa1fd5e926bb650d0a2a13cc40eb",
    "resource": {
      "resourceType": "Immunization",
      "meta": {
        "profile": [ "https://www.netzwerk-universitaetsmedizin.de/fhir/StructureDefinition/immunization" ]
      },
      "identifier": [ {
        "system": "https://mein.krankenhaus.de/fhir/NamingSystem/immunizationId",
        "value": "ccfb0ead49d8158f59a3e82e1f155315bb3217c9ce2d69536fb26c218749c339"
      } ],
      "status": "completed",
      "vaccineCode": {
        "coding": [ {
          "system": "http://snomed.info/sct",
          "code": "836377006"
        } ]
      },
      "patient": {
        "reference": "Patient/debc4b76df75a6a49a868d38d812ab4dcd2cf9c135339c35fa1ab482a467b948"
      },
      "encounter": {
        "reference": "Encounter/47fc088525418d0924dce79fa81a62046f09a53da06f32615b920d159114a675"
      },
      "occurrenceDateTime": "2020-08-08",
      "protocolApplied": [ {
        "targetDisease": [ {
          "coding": [ {
            "system": "http://snomed.info/sct",
            "code": "6142004"
          } ]
        } ],
        "_doseNumberString": {
          "extension": [ {
            "url": "http://hl7.org/fhir/StructureDefinition/data-absent-reason",
            "valueCode": "unknown"
          } ]
        }
      } ]
    },
    "request": {
      "method": "POST",
      "url": "Immunization",
      "ifNoneExist": "identifier=https://mein.krankenhaus.de/fhir/NamingSystem/immunizationId|fccea33365bf8780ec60e85f7a77cc0a3432fa1fd5e926bb650d0a2a13cc40eb"
    }
  }, {
    "fullUrl": "Immunization/06141fb1d3aab142ea5084908f445797808c767faea7c6857b6450e70dba3537",
    "resource": {
      "resourceType": "Immunization",
      "meta": {
        "profile": [ "https://www.netzwerk-universitaetsmedizin.de/fhir/StructureDefinition/immunization" ]
      },
      "identifier": [ {
        "system": "https://mein.krankenhaus.de/fhir/NamingSystem/immunizationId",
        "value": "4e86daf9c0cd5c331d4854d4cf7a6432602782edafd83cfcb224df607236acd8"
      } ],
      "status": "completed",
      "vaccineCode": {
        "coding": [ {
          "system": "http://snomed.info/sct",
          "code": "836398006"
        } ]
      },
      "patient": {
        "reference": "Patient/debc4b76df75a6a49a868d38d812ab4dcd2cf9c135339c35fa1ab482a467b948"
      },
      "encounter": {
        "reference": "Encounter/47fc088525418d0924dce79fa81a62046f09a53da06f32615b920d159114a675"
      },
      "occurrenceDateTime": "2020-11-16",
      "protocolApplied": [ {
        "targetDisease": [ {
          "coding": [ {
            "system": "http://snomed.info/sct",
            "code": "16814004"
          } ]
        } ],
        "_doseNumberString": {
          "extension": [ {
            "url": "http://hl7.org/fhir/StructureDefinition/data-absent-reason",
            "valueCode": "unknown"
          } ]
        }
      } ]
    },
    "request": {
      "method": "POST",
      "url": "Immunization",
      "ifNoneExist": "identifier=https://mein.krankenhaus.de/fhir/NamingSystem/immunizationId|06141fb1d3aab142ea5084908f445797808c767faea7c6857b6450e70dba3537"
    }
  }, {
    "fullUrl": "Immunization/3fbc66a4f1844666f068254924122cd065a6139cbceabc38c7ded8042724d965",
    "resource": {
      "resourceType": "Immunization",
      "meta": {
        "profile": [ "https://www.netzwerk-universitaetsmedizin.de/fhir/StructureDefinition/immunization" ]
      },
      "identifier": [ {
        "system": "https://mein.krankenhaus.de/fhir/NamingSystem/immunizationId",
        "value": "66567a745c3581d90a7f5227eeed8b29cd10803ac0de38de8454fed6a90f06b7"
      } ],
      "status": "completed",
      "vaccineCode": {
        "coding": [ {
          "system": "http://snomed.info/sct",
          "code": "836402002"
        } ]
      },
      "patient": {
        "reference": "Patient/debc4b76df75a6a49a868d38d812ab4dcd2cf9c135339c35fa1ab482a467b948"
      },
      "encounter": {
        "reference": "Encounter/47fc088525418d0924dce79fa81a62046f09a53da06f32615b920d159114a675"
      },
      "occurrenceDateTime": "2020-11-30",
      "protocolApplied": [ {
        "targetDisease": [ {
          "coding": [ {
            "system": "http://snomed.info/sct",
            "code": "56717001"
          } ]
        } ],
        "_doseNumberString": {
          "extension": [ {
            "url": "http://hl7.org/fhir/StructureDefinition/data-absent-reason",
            "valueCode": "unknown"
          } ]
        }
      } ]
    },
    "request": {
      "method": "POST",
      "url": "Immunization",
      "ifNoneExist": "identifier=https://mein.krankenhaus.de/fhir/NamingSystem/immunizationId|3fbc66a4f1844666f068254924122cd065a6139cbceabc38c7ded8042724d965"
    }
  }, {
    "fullUrl": "Immunization/a541894349ef29df64192768ad6513fdb6b3891356d9d0423c88390157af5d6f",
    "resource": {
      "resourceType": "Immunization",
      "meta": {
        "profile": [ "https://www.netzwerk-universitaetsmedizin.de/fhir/StructureDefinition/immunization" ]
      },
      "identifier": [ {
        "system": "https://mein.krankenhaus.de/fhir/NamingSystem/immunizationId",
        "value": "2ca0d4ed2a6dfd820e688c4dd2aaf8eea645671d2b5fb822d1f92869c59e2c98"
      } ],
      "status": "completed",
      "vaccineCode": {
        "coding": [ {
          "system": "http://snomed.info/sct",
          "code": "1119349007"
        } ]
      },
      "patient": {
        "reference": "Patient/debc4b76df75a6a49a868d38d812ab4dcd2cf9c135339c35fa1ab482a467b948"
      },
      "encounter": {
        "reference": "Encounter/47fc088525418d0924dce79fa81a62046f09a53da06f32615b920d159114a675"
      },
      "occurrenceDateTime": "2020-09-25",
      "protocolApplied": [ {
        "targetDisease": [ {
          "coding": [ {
            "system": "http://snomed.info/sct",
            "code": "840539006"
          } ]
        } ],
        "_doseNumberString": {
          "extension": [ {
            "url": "http://hl7.org/fhir/StructureDefinition/data-absent-reason",
            "valueCode": "unknown"
          } ]
        }
      } ]
    },
    "request": {
      "method": "POST",
      "url": "Immunization",
      "ifNoneExist": "identifier=https://mein.krankenhaus.de/fhir/NamingSystem/immunizationId|a541894349ef29df64192768ad6513fdb6b3891356d9d0423c88390157af5d6f"
    }
  }, {
    "fullUrl": "Consent/464d77730b3b53c9920605ba9eefdc463810a6e944a45aa1351b8e6b02806231",
    "resource": {
      "resourceType": "Consent",
      "meta": {
        "profile": [ "https://www.netzwerk-universitaetsmedizin.de/fhir/StructureDefinition/do-not-resuscitate-order" ]
      },
      "identifier": [ {
        "system": "https://mein.krankenhaus.de/fhir/NamingSystem/consentId",
        "value": "b00ed975eccef82a2fcf2a66eed4e96d92e2e994377c0bdf4d3249b6c4173757"
      } ],
      "status": "active",
      "scope": {
        "coding": [ {
          "system": "http://terminology.hl7.org/CodeSystem/consentscope",
          "code": "adr",
          "display": "Advanced Care Directive"
        } ]
      },
      "category": [ {
        "coding": [ {
          "system": "http://terminology.hl7.org/CodeSystem/consentcategorycodes",
          "code": "dnr",
          "display": "Do Not Resuscitate"
        } ]
      } ],
      "patient": {
        "reference": "Patient/debc4b76df75a6a49a868d38d812ab4dcd2cf9c135339c35fa1ab482a467b948"
      },
      "policy": [ {
        "uri": "https://www.aerzteblatt.de/archiv/65440/DNR-Anordnungen-Das-fehlende-Bindeglied"
      } ],
      "provision": {
        "code": [ {
          "coding": [ {
            "system": "http://snomed.info/sct",
            "code": "304252001"
          } ]
        } ]
      }
    },
    "request": {
      "method": "POST",
      "url": "Consent",
      "ifNoneExist": "identifier=https://mein.krankenhaus.de/fhir/NamingSystem/consentId|464d77730b3b53c9920605ba9eefdc463810a6e944a45aa1351b8e6b02806231"
    }
  }, {
    "fullUrl": "Observation/4b5e4e0755b125ad8e917e9a26c32c77da7295afd858568e1176519291534231",
    "resource": {
      "resourceType": "Observation",
      "meta": {
        "profile": [ "https://www.netzwerk-universitaetsmedizin.de/fhir/StructureDefinition/sex-assigned-at-birth" ]
      },
      "identifier": [ {
        "system": "https://mein.krankenhaus.de/fhir/NamingSystem/observationId",
        "value": "fe01a5ab2653b204abe53f3a4af20d46b35ba7e1e007043612c6dec4ffe48e0a"
      } ],
      "status": "final",
      "category": [ {
        "coding": [ {
          "system": "http://terminology.hl7.org/CodeSystem/observation-category",
          "code": "social-history",
          "display": "Social History"
        } ]
      } ],
      "code": {
        "coding": [ {
          "system": "http://loinc.org",
          "code": "76689-9"
        } ]
      },
      "subject": {
        "reference": "Patient/debc4b76df75a6a49a868d38d812ab4dcd2cf9c135339c35fa1ab482a467b948"
      },
      "encounter": {
        "reference": "Encounter/47fc088525418d0924dce79fa81a62046f09a53da06f32615b920d159114a675"
      },
      "_effectiveDateTime": {
        "extension": [ {
          "url": "http://hl7.org/fhir/StructureDefinition/data-absent-reason",
          "valueCode": "unknown"
        } ]
      },
      "valueCodeableConcept": {
        "coding": [ {
          "system": "http://fhir.de/CodeSystem/gender-amtlich-de",
          "code": "X"
        } ]
      }
    },
    "request": {
      "method": "POST",
      "url": "Observation",
      "ifNoneExist": "identifier=https://mein.krankenhaus.de/fhir/NamingSystem/observationId|4b5e4e0755b125ad8e917e9a26c32c77da7295afd858568e1176519291534231"
    }
  }, {
    "fullUrl": "Observation/e10830886759a0a9430dd3236cbb667b60b5aa6d1f7139264786df66c8179dca",
    "resource": {
      "resourceType": "Observation",
      "meta": {
        "profile": [ "https://www.netzwerk-universitaetsmedizin.de/fhir/StructureDefinition/frailty-score" ]
      },
      "identifier": [ {
        "type": {
          "coding": [ {
            "system": "http://terminology.hl7.org/CodeSystem/v2-0203",
            "code": "OBI",
            "display": "Observation Instance Identifier"
          } ]
        },
        "system": "https://mein.krankenhaus.de/fhir/NamingSystem/observationId",
        "value": "a583cf66ed5c09ad9521930db657127aaf20cc264ea68514269d00c597650670",
        "assigner": {
          "reference": "Organization/3a4f3433bce81181bad2d8e0b8fafccf7dc800bc06f29be73dcb38b750a48f9a"
        }
      } ],
      "status": "final",
      "category": [ {
        "coding": [ {
          "system": "http://terminology.hl7.org/CodeSystem/observation-category",
          "code": "survey",
          "display": "Survey"
        } ]
      } ],
      "code": {
        "coding": [ {
          "system": "http://snomed.info/sct",
          "code": "763264000"
        } ],
        "text": "Frailty Scale Score"
      },
      "subject": {
        "reference": "Patient/debc4b76df75a6a49a868d38d812ab4dcd2cf9c135339c35fa1ab482a467b948"
      },
      "encounter": {
        "reference": "Encounter/47fc088525418d0924dce79fa81a62046f09a53da06f32615b920d159114a675"
      },
      "_effectiveDateTime": {
        "extension": [ {
          "url": "http://hl7.org/fhir/StructureDefinition/data-absent-reason",
          "valueCode": "unknown"
        } ]
      },
      "valueCodeableConcept": {
        "coding": [ {
          "system": "https://www.netzwerk-universitaetsmedizin.de/fhir/CodeSystem/frailty-score",
          "code": "5"
        } ]
      },
      "method": {
        "coding": [ {
          "system": "http://snomed.info/sct",
          "code": "445414007",
          "display": "Canadian Study of Health and Aging clinical frailty scale"
        } ]
      }
    },
    "request": {
      "method": "POST",
      "url": "Observation",
      "ifNoneExist": "identifier=https://mein.krankenhaus.de/fhir/NamingSystem/observationId|e10830886759a0a9430dd3236cbb667b60b5aa6d1f7139264786df66c8179dca"
    }
  }, {
    "fullUrl": "Observation/47e78b35260ce469085c311f0e40e347f69c16c4759b6aed56ee44e839543cc9",
    "resource": {
      "resourceType": "Observation",
      "meta": {
        "profile": [ "https://www.netzwerk-universitaetsmedizin.de/fhir/StructureDefinition/body-weight" ]
      },
      "identifier": [ {
        "type": {
          "coding": [ {
            "system": "http://terminology.hl7.org/CodeSystem/v2-0203",
            "code": "OBI",
            "display": "Observation Instance Identifier"
          } ]
        },
        "system": "https://mein.krankenhaus.de/fhir/NamingSystem/observationId",
        "value": "f83ca7b458dcf15e236adc0d1df882784ca87e44ca9460e69b3389039905f420",
        "assigner": {
          "reference": "Organization/3a4f3433bce81181bad2d8e0b8fafccf7dc800bc06f29be73dcb38b750a48f9a"
        }
      } ],
      "status": "final",
      "category": [ {
        "coding": [ {
          "system": "http://terminology.hl7.org/CodeSystem/observation-category",
          "code": "vital-signs",
          "display": "Vital Signs"
        } ]
      } ],
      "code": {
        "coding": [ {
          "system": "http://loinc.org",
          "code": "29463-7"
        }, {
          "system": "http://snomed.info/sct",
          "code": "27113001"
        } ],
        "text": "Body Weight"
      },
      "subject": {
        "reference": "Patient/debc4b76df75a6a49a868d38d812ab4dcd2cf9c135339c35fa1ab482a467b948"
      },
      "encounter": {
        "reference": "Encounter/47fc088525418d0924dce79fa81a62046f09a53da06f32615b920d159114a675"
      },
      "_effectiveDateTime": {
        "extension": [ {
          "url": "http://hl7.org/fhir/StructureDefinition/data-absent-reason",
          "valueCode": "unknown"
        } ]
      },
      "valueQuantity": {
        "value": 116,
        "unit": "kilogram",
        "system": "http://unitsofmeasure.org",
        "code": "kg"
      }
    },
    "request": {
      "method": "POST",
      "url": "Observation",
      "ifNoneExist": "identifier=https://mein.krankenhaus.de/fhir/NamingSystem/observationId|47e78b35260ce469085c311f0e40e347f69c16c4759b6aed56ee44e839543cc9"
    }
  }, {
    "fullUrl": "Observation/5bcf8df49d5519c5d746009e8bab7571caa337d499b654854623cd6af5e0e034",
    "resource": {
      "resourceType": "Observation",
      "meta": {
        "profile": [ "https://www.netzwerk-universitaetsmedizin.de/fhir/StructureDefinition/body-height" ]
      },
      "identifier": [ {
        "type": {
          "coding": [ {
            "system": "http://terminology.hl7.org/CodeSystem/v2-0203",
            "code": "OBI",
            "display": "Observation Instance Identifier"
          } ]
        },
        "system": "https://mein.krankenhaus.de/fhir/NamingSystem/observationId",
        "value": "ea1a100b1db73c0e6fd202ec16ff95fd327b15527cc82b19b615daa10535c326",
        "assigner": {
          "reference": "Organization/3a4f3433bce81181bad2d8e0b8fafccf7dc800bc06f29be73dcb38b750a48f9a"
        }
      } ],
      "status": "final",
      "category": [ {
        "coding": [ {
          "system": "http://terminology.hl7.org/CodeSystem/observation-category",
          "code": "vital-signs",
          "display": "Vital Signs"
        } ]
      } ],
      "code": {
        "coding": [ {
          "system": "http://loinc.org",
          "code": "8302-2"
        }, {
          "system": "http://snomed.info/sct",
          "code": "50373000"
        } ],
        "text": "Body height"
      },
      "subject": {
        "reference": "Patient/debc4b76df75a6a49a868d38d812ab4dcd2cf9c135339c35fa1ab482a467b948"
      },
      "encounter": {
        "reference": "Encounter/47fc088525418d0924dce79fa81a62046f09a53da06f32615b920d159114a675"
      },
      "_effectiveDateTime": {
        "extension": [ {
          "url": "http://hl7.org/fhir/StructureDefinition/data-absent-reason",
          "valueCode": "unknown"
        } ]
      },
      "valueQuantity": {
        "value": 156,
        "unit": "centimeter",
        "system": "http://unitsofmeasure.org",
        "code": "cm"
      }
    },
    "request": {
      "method": "POST",
      "url": "Observation",
      "ifNoneExist": "identifier=https://mein.krankenhaus.de/fhir/NamingSystem/observationId|5bcf8df49d5519c5d746009e8bab7571caa337d499b654854623cd6af5e0e034"
    }
  }, {
    "fullUrl": "Observation/41d719f144967f33883dfa65f642ec75d7beaf6d0462610fbd1782af9277de30",
    "resource": {
      "resourceType": "Observation",
      "meta": {
        "profile": [ "https://www.netzwerk-universitaetsmedizin.de/fhir/StructureDefinition/known-exposure" ]
      },
      "identifier": [ {
        "type": {
          "coding": [ {
            "system": "http://terminology.hl7.org/CodeSystem/v2-0203",
            "code": "OBI",
            "display": "Observation Instance Identifier"
          } ]
        },
        "system": "https://mein.krankenhaus.de/fhir/NamingSystem/observationId",
        "value": "ae02d5be99b3e7de4cfa0c9c1c909fb11162f74d2de616fdde8b896ab1c3871e",
        "assigner": {
          "reference": "Organization/3a4f3433bce81181bad2d8e0b8fafccf7dc800bc06f29be73dcb38b750a48f9a"
        }
      } ],
      "status": "final",
      "category": [ {
        "coding": [ {
          "system": "http://terminology.hl7.org/CodeSystem/observation-category",
          "code": "social-history",
          "display": "Social History"
        } ]
      } ],
      "code": {
        "coding": [ {
          "system": "http://loinc.org",
          "code": "88636-6"
        } ],
        "text": "Known exposure"
      },
      "subject": {
        "reference": "Patient/debc4b76df75a6a49a868d38d812ab4dcd2cf9c135339c35fa1ab482a467b948"
      },
      "encounter": {
        "reference": "Encounter/47fc088525418d0924dce79fa81a62046f09a53da06f32615b920d159114a675"
      },
      "_effectiveDateTime": {
        "extension": [ {
          "url": "http://hl7.org/fhir/StructureDefinition/data-absent-reason",
          "valueCode": "unknown"
        } ]
      },
      "valueCodeableConcept": {
        "coding": [ {
          "system": "http://snomed.info/sct",
          "code": "373067005"
        } ]
      }
    },
    "request": {
      "method": "POST",
      "url": "Observation",
      "ifNoneExist": "identifier=https://mein.krankenhaus.de/fhir/NamingSystem/observationId|41d719f144967f33883dfa65f642ec75d7beaf6d0462610fbd1782af9277de30"
    }
  }, {
    "fullUrl": "Procedure/c16b74b737d1778c59cd84dec0ee88bdb8a4418464e259db80d22b4623d8723d",
    "resource": {
      "resourceType": "Procedure",
      "meta": {
        "profile": [ "https://www.netzwerk-universitaetsmedizin.de/fhir/StructureDefinition/dialysis" ]
      },
      "identifier": [ {
        "system": "https://mein.krankenhaus.de/fhir/NamingSystem/procedureId",
        "value": "044a25543e83484f8a36611ce0222e2997af38f12a49acce252fe6e692131080"
      } ],
      "status": "not-done",
      "category": {
        "coding": [ {
          "system": "http://snomed.info/sct",
          "code": "277132007",
          "display": "Therapeutic procedure (procedure)"
        } ]
      },
      "code": {
        "coding": [ {
          "system": "http://snomed.info/sct",
          "code": "108241001"
        } ],
        "text": "Dialysis"
      },
      "subject": {
        "reference": "Patient/debc4b76df75a6a49a868d38d812ab4dcd2cf9c135339c35fa1ab482a467b948"
      },
      "encounter": {
        "reference": "Encounter/47fc088525418d0924dce79fa81a62046f09a53da06f32615b920d159114a675"
      },
      "_performedDateTime": {
        "extension": [ {
          "url": "http://hl7.org/fhir/StructureDefinition/data-absent-reason",
          "valueCode": "not-performed"
        } ]
      }
    },
    "request": {
      "method": "POST",
      "url": "Procedure",
      "ifNoneExist": "identifier=https://mein.krankenhaus.de/fhir/NamingSystem/procedureId|c16b74b737d1778c59cd84dec0ee88bdb8a4418464e259db80d22b4623d8723d"
    }
  }, {
    "fullUrl": "Procedure/20c5e041b8994c40b0f3722415e392e21b3a1c87bfe2d7c544ffdfa3b2f5c5bb",
    "resource": {
      "resourceType": "Procedure",
      "meta": {
        "profile": [ "https://www.netzwerk-universitaetsmedizin.de/fhir/StructureDefinition/apheresis" ]
      },
      "identifier": [ {
        "system": "https://mein.krankenhaus.de/fhir/NamingSystem/procedureId",
        "value": "ad232d05c9c1fe62e1829b025c14e849157ecdb2bc97806171fcabd012e188dc"
      } ],
      "status": "unknown",
      "category": {
        "coding": [ {
          "system": "http://snomed.info/sct",
          "code": "277132007",
          "display": "Therapeutic procedure (procedure)"
        } ]
      },
      "code": {
        "coding": [ {
          "system": "http://snomed.info/sct",
          "code": "127788007"
        } ],
        "text": "Apheresis"
      },
      "subject": {
        "reference": "Patient/debc4b76df75a6a49a868d38d812ab4dcd2cf9c135339c35fa1ab482a467b948"
      },
      "encounter": {
        "reference": "Encounter/47fc088525418d0924dce79fa81a62046f09a53da06f32615b920d159114a675"
      },
      "_performedDateTime": {
        "extension": [ {
          "url": "http://hl7.org/fhir/StructureDefinition/data-absent-reason",
          "valueCode": "unknown"
        } ]
      }
    },
    "request": {
      "method": "POST",
      "url": "Procedure",
      "ifNoneExist": "identifier=https://mein.krankenhaus.de/fhir/NamingSystem/procedureId|20c5e041b8994c40b0f3722415e392e21b3a1c87bfe2d7c544ffdfa3b2f5c5bb"
    }
  }, {
    "fullUrl": "Procedure/ab12fff1a36875a7f37089e4de74968cfe3cd219d50de64fcaf258182852caa6",
    "resource": {
      "resourceType": "Procedure",
      "meta": {
        "profile": [ "https://www.netzwerk-universitaetsmedizin.de/fhir/StructureDefinition/prone-position" ]
      },
      "identifier": [ {
        "system": "https://mein.krankenhaus.de/fhir/NamingSystem/procedureId",
        "value": "5f753a3733ff386ff4b3affb0fb696f9627e401746cd526dd2eea276f54caa78"
      } ],
      "status": "in-progress",
      "category": {
        "coding": [ {
          "system": "http://snomed.info/sct",
          "code": "225287004",
          "display": "Procedures relating to positioning and support (procedure)"
        } ]
      },
      "code": {
        "coding": [ {
          "system": "http://snomed.info/sct",
          "code": "431182000"
        } ],
        "text": "Prone position"
      },
      "subject": {
        "reference": "Patient/debc4b76df75a6a49a868d38d812ab4dcd2cf9c135339c35fa1ab482a467b948"
      },
      "encounter": {
        "reference": "Encounter/47fc088525418d0924dce79fa81a62046f09a53da06f32615b920d159114a675"
      },
      "_performedDateTime": {
        "extension": [ {
          "url": "http://hl7.org/fhir/StructureDefinition/data-absent-reason",
          "valueCode": "unknown"
        } ]
      }
    },
    "request": {
      "method": "POST",
      "url": "Procedure",
      "ifNoneExist": "identifier=https://mein.krankenhaus.de/fhir/NamingSystem/procedureId|ab12fff1a36875a7f37089e4de74968cfe3cd219d50de64fcaf258182852caa6"
    }
  }, {
    "fullUrl": "Procedure/d6599ca6b6bb4ec0d84075dc25e338c7587ab96103fc7113db162c7d23a323cb",
    "resource": {
      "resourceType": "Procedure",
      "meta": {
        "profile": [ "https://www.netzwerk-universitaetsmedizin.de/fhir/StructureDefinition/respiratory-therapies" ]
      },
      "identifier": [ {
        "system": "https://mein.krankenhaus.de/fhir/NamingSystem/procedureId",
        "value": "c1553973999e648c91b1ec098fbbbbfe74879a8c0b8455c196a738b5d193aa0f"
      } ],
      "status": "in-progress",
      "category": {
        "coding": [ {
          "system": "http://snomed.info/sct",
          "code": "277132007",
          "display": "Therapeutic procedure (procedure)"
        } ]
      },
      "code": {
        "coding": [ {
          "system": "http://snomed.info/sct",
          "code": "371907003:425391005=426854004"
        } ]
      },
      "subject": {
        "reference": "Patient/debc4b76df75a6a49a868d38d812ab4dcd2cf9c135339c35fa1ab482a467b948"
      },
      "encounter": {
        "reference": "Encounter/47fc088525418d0924dce79fa81a62046f09a53da06f32615b920d159114a675"
      },
      "_performedDateTime": {
        "extension": [ {
          "url": "http://hl7.org/fhir/StructureDefinition/data-absent-reason",
          "valueCode": "unknown"
        } ]
      },
      "usedCode": [ {
        "coding": [ {
          "system": "http://snomed.info/sct",
          "code": "426854004"
        } ]
      } ]
    },
    "request": {
      "method": "POST",
      "url": "Procedure",
      "ifNoneExist": "identifier=https://mein.krankenhaus.de/fhir/NamingSystem/procedureId|d6599ca6b6bb4ec0d84075dc25e338c7587ab96103fc7113db162c7d23a323cb"
    }
  }, {
    "fullUrl": "Observation/22df96503856f43002f7f6eeef722ceaaee18866f041cb1ba8051930472b436e",
    "resource": {
      "resourceType": "Observation",
      "meta": {
        "profile": [ "https://www.netzwerk-universitaetsmedizin.de/fhir/StructureDefinition/patient-in-icu" ]
      },
      "identifier": [ {
        "system": "https://mein.krankenhaus.de/fhir/NamingSystem/observationId",
        "value": "9e31f169d4b19496fe42201929a6b69630bdc00b4bb6913b86bcbfb5a5f902e4"
      } ],
      "status": "final",
      "category": [ {
        "coding": [ {
          "system": "http://terminology.hl7.org/CodeSystem/observation-category",
          "code": "survey",
          "display": "Survey"
        } ]
      } ],
      "code": {
        "coding": [ {
          "system": "https://www.netzwerk-universitaetsmedizin.de/fhir/CodeSystem/ecrf-parameter-codes",
          "code": "01",
          "display": "Is the patient in the intensive care unit?"
        } ]
      },
      "subject": {
        "reference": "Patient/debc4b76df75a6a49a868d38d812ab4dcd2cf9c135339c35fa1ab482a467b948"
      },
      "encounter": {
        "reference": "Encounter/47fc088525418d0924dce79fa81a62046f09a53da06f32615b920d159114a675"
      },
      "_effectiveDateTime": {
        "extension": [ {
          "url": "http://hl7.org/fhir/StructureDefinition/data-absent-reason",
          "valueCode": "unknown"
        } ]
      },
      "valueCodeableConcept": {
        "coding": [ {
          "system": "http://snomed.info/sct",
          "code": "261665006"
        } ]
      }
    },
    "request": {
      "method": "POST",
      "url": "Observation",
      "ifNoneExist": "identifier=https://mein.krankenhaus.de/fhir/NamingSystem/observationId|22df96503856f43002f7f6eeef722ceaaee18866f041cb1ba8051930472b436e"
    }
  }, {
    "fullUrl": "Condition/0ad011074b50e11ef4b08ae677ecd0dc191143fb1f695651cf614c3dfea8ba30",
    "resource": {
      "resourceType": "Condition",
      "meta": {
        "profile": [ "https://www.netzwerk-universitaetsmedizin.de/fhir/StructureDefinition/dependence-on-ventilator" ]
      },
      "identifier": [ {
        "system": "https://mein.krankenhaus.de/fhir/NamingSystem/conditionId",
        "value": "aa45952667c8fa448b231365a95243295e2c0454fa0fbb48d70469779131c3ba"
      } ],
      "clinicalStatus": {
        "coding": [ {
          "system": "http://terminology.hl7.org/CodeSystem/condition-clinical",
          "code": "active",
          "display": "Active"
        } ]
      },
      "verificationStatus": {
        "coding": [ {
          "system": "http://terminology.hl7.org/CodeSystem/condition-ver-status",
          "code": "refuted",
          "display": "Refuted"
        }, {
          "system": "http://snomed.info/sct",
          "code": "410594000",
          "display": "Definitely NOT present (qualifier value)"
        } ]
      },
      "category": [ {
        "coding": [ {
          "system": "http://snomed.info/sct",
          "code": "404989005",
          "display": "Ventilation status (observable entity)"
        } ]
      } ],
      "code": {
        "coding": [ {
          "system": "http://snomed.info/sct",
          "code": "444932008"
        } ]
      },
      "subject": {
        "reference": "Patient/debc4b76df75a6a49a868d38d812ab4dcd2cf9c135339c35fa1ab482a467b948"
      },
      "encounter": {
        "reference": "Encounter/47fc088525418d0924dce79fa81a62046f09a53da06f32615b920d159114a675"
      },
      "_recordedDate": {
        "extension": [ {
          "url": "http://hl7.org/fhir/StructureDefinition/data-absent-reason",
          "valueCode": "unknown"
        } ]
      }
    },
    "request": {
      "method": "POST",
      "url": "Condition",
      "ifNoneExist": "identifier=https://mein.krankenhaus.de/fhir/NamingSystem/conditionId|0ad011074b50e11ef4b08ae677ecd0dc191143fb1f695651cf614c3dfea8ba30"
    }
  }, {
    "fullUrl": "Observation/5405535e654cd86a729805d29b866889707f4a65426d00960a9a3d00c92015f0",
    "resource": {
      "resourceType": "Observation",
      "meta": {
        "profile": [ "https://www.netzwerk-universitaetsmedizin.de/fhir/StructureDefinition/sars-cov-2-rt-pcr" ]
      },
      "identifier": [ {
        "type": {
          "coding": [ {
            "system": "http://terminology.hl7.org/CodeSystem/v2-0203",
            "code": "OBI",
            "display": "Observation Instance Identifier"
          } ]
        },
        "system": "https://mein.krankenhaus.de/fhir/NamingSystem/observationId",
        "value": "e6afed2bd42d090a205a4ea9ec5493038bec5e701547c198ead7b312119000f5",
        "assigner": {
          "reference": "Organization/3a4f3433bce81181bad2d8e0b8fafccf7dc800bc06f29be73dcb38b750a48f9a"
        }
      } ],
      "status": "final",
      "category": [ {
        "coding": [ {
          "system": "http://terminology.hl7.org/CodeSystem/observation-category",
          "code": "laboratory",
          "display": "Laboratory"
        }, {
          "system": "http://loinc.org",
          "code": "26436-6",
          "display": "Laboratory studies (set)"
        } ]
      } ],
      "code": {
        "coding": [ {
          "system": "http://loinc.org",
          "code": "94500-6"
        } ]
      },
      "subject": {
        "reference": "Patient/debc4b76df75a6a49a868d38d812ab4dcd2cf9c135339c35fa1ab482a467b948"
      },
      "encounter": {
        "reference": "Encounter/47fc088525418d0924dce79fa81a62046f09a53da06f32615b920d159114a675"
      },
      "_effectiveDateTime": {
        "extension": [ {
          "url": "http://hl7.org/fhir/StructureDefinition/data-absent-reason",
          "valueCode": "unknown"
        } ]
      },
      "valueCodeableConcept": {
        "coding": [ {
          "system": "http://snomed.info/sct",
          "code": "260373001"
        } ]
      }
    },
    "request": {
      "method": "POST",
      "url": "Observation",
      "ifNoneExist": "identifier=https://mein.krankenhaus.de/fhir/NamingSystem/observationId|5405535e654cd86a729805d29b866889707f4a65426d00960a9a3d00c92015f0"
    }
  }, {
    "fullUrl": "Observation/1887b8dd2458f8972aed13487b086ab2a5eee9b4a1e7e254d0aebf4e61966610",
    "resource": {
      "resourceType": "Observation",
      "meta": {
        "profile": [ "https://www.medizininformatik-initiative.de/fhir/core/modul-labor/StructureDefinition/ObservationLab" ]
      },
      "identifier": [ {
        "type": {
          "coding": [ {
            "system": "http://terminology.hl7.org/CodeSystem/v2-0203",
            "code": "OBI",
            "display": "Observation Instance Identifier"
          } ]
        },
        "system": "https://mein.krankenhaus.de/fhir/NamingSystem/observationId",
        "value": "05aceb18937779485fc852e392b98cb9c8e9a61aa5817913f221672c508b028f",
        "assigner": {
          "reference": "Organization/3a4f3433bce81181bad2d8e0b8fafccf7dc800bc06f29be73dcb38b750a48f9a"
        }
      } ],
      "status": "final",
      "category": [ {
        "coding": [ {
          "system": "http://terminology.hl7.org/CodeSystem/observation-category",
          "code": "laboratory",
          "display": "Laboratory"
        }, {
          "system": "http://loinc.org",
          "code": "26436-6"
        } ]
      } ],
      "code": {
        "coding": [ {
          "system": "http://loinc.org",
          "code": "30522-7",
          "display": "c-reactive-protein-in-serum-or-plasma-by-high-sensitivity-method"
        } ],
        "text": "crp"
      },
      "subject": {
        "reference": "Patient/debc4b76df75a6a49a868d38d812ab4dcd2cf9c135339c35fa1ab482a467b948"
      },
      "encounter": {
        "reference": "Encounter/47fc088525418d0924dce79fa81a62046f09a53da06f32615b920d159114a675"
      },
      "effectiveDateTime": "2020-10-28T22:19:00+00:00",
      "valueQuantity": {
        "value": 88.03274054600637,
        "unit": "mg/dL",
        "system": "http://unitsofmeasure.org",
        "code": "mg/dL"
      }
    },
    "request": {
      "method": "POST",
      "url": "Observation",
      "ifNoneExist": "identifier=https://mein.krankenhaus.de/fhir/NamingSystem/observationId|1887b8dd2458f8972aed13487b086ab2a5eee9b4a1e7e254d0aebf4e61966610"
    }
  }, {
    "fullUrl": "Observation/591fb767f9fc6372fa9e925fc8bf18829533a66a1bfc03604de1a1503501abbd",
    "resource": {
      "resourceType": "Observation",
      "meta": {
        "profile": [ "https://www.medizininformatik-initiative.de/fhir/core/modul-labor/StructureDefinition/ObservationLab" ]
      },
      "identifier": [ {
        "type": {
          "coding": [ {
            "system": "http://terminology.hl7.org/CodeSystem/v2-0203",
            "code": "OBI",
            "display": "Observation Instance Identifier"
          } ]
        },
        "system": "https://mein.krankenhaus.de/fhir/NamingSystem/observationId",
        "value": "b1dd6ca3b78b3c169bad1772ca36c3f812b8875acab2e07308a7aa30e594b7a3",
        "assigner": {
          "reference": "Organization/3a4f3433bce81181bad2d8e0b8fafccf7dc800bc06f29be73dcb38b750a48f9a"
        }
      } ],
      "status": "final",
      "category": [ {
        "coding": [ {
          "system": "http://terminology.hl7.org/CodeSystem/observation-category",
          "code": "laboratory",
          "display": "Laboratory"
        }, {
          "system": "http://loinc.org",
          "code": "26436-6"
        } ]
      } ],
      "code": {
        "coding": [ {
          "system": "http://loinc.org",
          "code": "48058-2",
          "display": "fibrin-d-dimer-ddu-in-platelet-poor-plasma-by-immunoassay"
        } ],
        "text": "ddimer"
      },
      "subject": {
        "reference": "Patient/debc4b76df75a6a49a868d38d812ab4dcd2cf9c135339c35fa1ab482a467b948"
      },
      "encounter": {
        "reference": "Encounter/47fc088525418d0924dce79fa81a62046f09a53da06f32615b920d159114a675"
      },
      "effectiveDateTime": "2020-10-28T22:19:00+00:00",
      "valueQuantity": {
        "value": 43.77257250072169,
        "unit": "ug/dL{DDU}",
        "system": "http://unitsofmeasure.org",
        "code": "ug/dL{DDU}"
      }
    },
    "request": {
      "method": "POST",
      "url": "Observation",
      "ifNoneExist": "identifier=https://mein.krankenhaus.de/fhir/NamingSystem/observationId|591fb767f9fc6372fa9e925fc8bf18829533a66a1bfc03604de1a1503501abbd"
    }
  }, {
    "fullUrl": "Observation/5b22662d638b941bee4c6ade03d82f72d1c1072bba855dc2eef5d8ca3d75f4d6",
    "resource": {
      "resourceType": "Observation",
      "meta": {
        "profile": [ "https://www.medizininformatik-initiative.de/fhir/core/modul-labor/StructureDefinition/ObservationLab" ]
      },
      "identifier": [ {
        "type": {
          "coding": [ {
            "system": "http://terminology.hl7.org/CodeSystem/v2-0203",
            "code": "OBI",
            "display": "Observation Instance Identifier"
          } ]
        },
        "system": "https://mein.krankenhaus.de/fhir/NamingSystem/observationId",
        "value": "b27c4e02d704ee991ac2256b1ca78329907557a714e477b3c68dcc1087b978ba",
        "assigner": {
          "reference": "Organization/3a4f3433bce81181bad2d8e0b8fafccf7dc800bc06f29be73dcb38b750a48f9a"
        }
      } ],
      "status": "final",
      "category": [ {
        "coding": [ {
          "system": "http://terminology.hl7.org/CodeSystem/observation-category",
          "code": "laboratory",
          "display": "Laboratory"
        }, {
          "system": "http://loinc.org",
          "code": "26436-6"
        } ]
      } ],
      "code": {
        "coding": [ {
          "system": "http://loinc.org",
          "code": "2324-2",
          "display": "gamma-glutamyl-transferase-in-serum-or-plasma"
        } ],
        "text": "gammagt"
      },
      "subject": {
        "reference": "Patient/debc4b76df75a6a49a868d38d812ab4dcd2cf9c135339c35fa1ab482a467b948"
      },
      "encounter": {
        "reference": "Encounter/47fc088525418d0924dce79fa81a62046f09a53da06f32615b920d159114a675"
      },
      "effectiveDateTime": "2020-10-28T22:19:00+00:00",
      "valueQuantity": {
        "value": 11.781862367272588,
        "unit": "U/L",
        "system": "http://unitsofmeasure.org",
        "code": "U/L"
      }
    },
    "request": {
      "method": "POST",
      "url": "Observation",
      "ifNoneExist": "identifier=https://mein.krankenhaus.de/fhir/NamingSystem/observationId|5b22662d638b941bee4c6ade03d82f72d1c1072bba855dc2eef5d8ca3d75f4d6"
    }
  }, {
    "fullUrl": "Observation/d0a55a077344cf1fc4137067e8f84fe9e33469b681baf7dc3e09237efe234a0f",
    "resource": {
      "resourceType": "Observation",
      "meta": {
        "profile": [ "https://www.medizininformatik-initiative.de/fhir/core/modul-labor/StructureDefinition/ObservationLab" ]
      },
      "identifier": [ {
        "type": {
          "coding": [ {
            "system": "http://terminology.hl7.org/CodeSystem/v2-0203",
            "code": "OBI",
            "display": "Observation Instance Identifier"
          } ]
        },
        "system": "https://mein.krankenhaus.de/fhir/NamingSystem/observationId",
        "value": "1035bd23275735db133d160b8894cd55e0765a4196cbb8fba6104c2de902e317",
        "assigner": {
          "reference": "Organization/3a4f3433bce81181bad2d8e0b8fafccf7dc800bc06f29be73dcb38b750a48f9a"
        }
      } ],
      "status": "final",
      "category": [ {
        "coding": [ {
          "system": "http://terminology.hl7.org/CodeSystem/observation-category",
          "code": "laboratory",
          "display": "Laboratory"
        }, {
          "system": "http://loinc.org",
          "code": "26436-6"
        } ]
      } ],
      "code": {
        "coding": [ {
          "system": "http://loinc.org",
          "code": "88112-8",
          "display": "aspartate-aminotransferase-in-serum-or-plasma-by-no-addition-of-p-5-p"
        } ],
        "text": "gotast"
      },
      "subject": {
        "reference": "Patient/debc4b76df75a6a49a868d38d812ab4dcd2cf9c135339c35fa1ab482a467b948"
      },
      "encounter": {
        "reference": "Encounter/47fc088525418d0924dce79fa81a62046f09a53da06f32615b920d159114a675"
      },
      "effectiveDateTime": "2020-10-28T22:19:00+00:00",
      "valueQuantity": {
        "value": 50.1045349872898,
        "unit": "U/L",
        "system": "http://unitsofmeasure.org",
        "code": "U/L"
      }
    },
    "request": {
      "method": "POST",
      "url": "Observation",
      "ifNoneExist": "identifier=https://mein.krankenhaus.de/fhir/NamingSystem/observationId|d0a55a077344cf1fc4137067e8f84fe9e33469b681baf7dc3e09237efe234a0f"
    }
  }, {
    "fullUrl": "Observation/43fb8e7ca76bcb1df1d45794a03d7b93f99187c8c12d3533ba704ce52b02915e",
    "resource": {
      "resourceType": "Observation",
      "meta": {
        "profile": [ "https://www.medizininformatik-initiative.de/fhir/core/modul-labor/StructureDefinition/ObservationLab" ]
      },
      "identifier": [ {
        "type": {
          "coding": [ {
            "system": "http://terminology.hl7.org/CodeSystem/v2-0203",
            "code": "OBI",
            "display": "Observation Instance Identifier"
          } ]
        },
        "system": "https://mein.krankenhaus.de/fhir/NamingSystem/observationId",
        "value": "94ba2e7bcddfaae47927304bf1688c0e87d3c888c09a699d949c022b65cf1b0f",
        "assigner": {
          "reference": "Organization/3a4f3433bce81181bad2d8e0b8fafccf7dc800bc06f29be73dcb38b750a48f9a"
        }
      } ],
      "status": "final",
      "category": [ {
        "coding": [ {
          "system": "http://terminology.hl7.org/CodeSystem/observation-category",
          "code": "laboratory",
          "display": "Laboratory"
        }, {
          "system": "http://loinc.org",
          "code": "26436-6"
        } ]
      } ],
      "code": {
        "coding": [ {
          "system": "http://loinc.org",
          "code": "60017-1",
          "display": "lactate-dehydrogenase-in-body-fluid-by-pyruvate-to-lactate-reaction"
        } ],
        "text": "ldh"
      },
      "subject": {
        "reference": "Patient/debc4b76df75a6a49a868d38d812ab4dcd2cf9c135339c35fa1ab482a467b948"
      },
      "encounter": {
        "reference": "Encounter/47fc088525418d0924dce79fa81a62046f09a53da06f32615b920d159114a675"
      },
      "effectiveDateTime": "2020-10-28T22:19:00+00:00",
      "valueQuantity": {
        "value": 72.75698841768254,
        "unit": "U/L",
        "system": "http://unitsofmeasure.org",
        "code": "U/L"
      }
    },
    "request": {
      "method": "POST",
      "url": "Observation",
      "ifNoneExist": "identifier=https://mein.krankenhaus.de/fhir/NamingSystem/observationId|43fb8e7ca76bcb1df1d45794a03d7b93f99187c8c12d3533ba704ce52b02915e"
    }
  }, {
    "fullUrl": "Observation/637e93917e0e8a2b8ac0b21dd4b8abe8fea2ba5005dd2507e960a7e1e68dfd5d",
    "resource": {
      "resourceType": "Observation",
      "meta": {
        "profile": [ "https://www.medizininformatik-initiative.de/fhir/core/modul-labor/StructureDefinition/ObservationLab" ]
      },
      "identifier": [ {
        "type": {
          "coding": [ {
            "system": "http://terminology.hl7.org/CodeSystem/v2-0203",
            "code": "OBI",
            "display": "Observation Instance Identifier"
          } ]
        },
        "system": "https://mein.krankenhaus.de/fhir/NamingSystem/observationId",
        "value": "5d7a4a8b1fbe0808993e0d83592c2ae8b650f05b528cb527bb9436b0349bb587",
        "assigner": {
          "reference": "Organization/3a4f3433bce81181bad2d8e0b8fafccf7dc800bc06f29be73dcb38b750a48f9a"
        }
      } ],
      "status": "final",
      "category": [ {
        "coding": [ {
          "system": "http://terminology.hl7.org/CodeSystem/observation-category",
          "code": "laboratory",
          "display": "Laboratory"
        }, {
          "system": "http://loinc.org",
          "code": "26436-6"
        } ]
      } ],
      "code": {
        "coding": [ {
          "system": "http://loinc.org",
          "code": "48425-3",
          "display": "troponin-t.cardiac-in-blood"
        } ],
        "text": "kardiale_troponine"
      },
      "subject": {
        "reference": "Patient/debc4b76df75a6a49a868d38d812ab4dcd2cf9c135339c35fa1ab482a467b948"
      },
      "encounter": {
        "reference": "Encounter/47fc088525418d0924dce79fa81a62046f09a53da06f32615b920d159114a675"
      },
      "effectiveDateTime": "2020-10-28T22:19:00+00:00",
      "valueQuantity": {
        "value": 75.04296379443895,
        "unit": "ng/mL",
        "system": "http://unitsofmeasure.org",
        "code": "ng/mL"
      }
    },
    "request": {
      "method": "POST",
      "url": "Observation",
      "ifNoneExist": "identifier=https://mein.krankenhaus.de/fhir/NamingSystem/observationId|637e93917e0e8a2b8ac0b21dd4b8abe8fea2ba5005dd2507e960a7e1e68dfd5d"
    }
  }, {
    "fullUrl": "Observation/b0badb42a758084b1a626d8341d0ec0db3a54a50586cb9643dd2a28116dffb51",
    "resource": {
      "resourceType": "Observation",
      "meta": {
        "profile": [ "https://www.medizininformatik-initiative.de/fhir/core/modul-labor/StructureDefinition/ObservationLab" ]
      },
      "identifier": [ {
        "type": {
          "coding": [ {
            "system": "http://terminology.hl7.org/CodeSystem/v2-0203",
            "code": "OBI",
            "display": "Observation Instance Identifier"
          } ]
        },
        "system": "https://mein.krankenhaus.de/fhir/NamingSystem/observationId",
        "value": "d9f07b1acb69a3b460d657c3f133129896e7f75cce3d7ab10166c75bfaaf7feb",
        "assigner": {
          "reference": "Organization/3a4f3433bce81181bad2d8e0b8fafccf7dc800bc06f29be73dcb38b750a48f9a"
        }
      } ],
      "status": "final",
      "category": [ {
        "coding": [ {
          "system": "http://terminology.hl7.org/CodeSystem/observation-category",
          "code": "laboratory",
          "display": "Laboratory"
        }, {
          "system": "http://loinc.org",
          "code": "26436-6"
        } ]
      } ],
      "code": {
        "coding": [ {
          "system": "http://loinc.org",
          "code": "12190-5",
          "display": "creatinine-in-body-fluid"
        } ],
        "text": "kreatinin"
      },
      "subject": {
        "reference": "Patient/debc4b76df75a6a49a868d38d812ab4dcd2cf9c135339c35fa1ab482a467b948"
      },
      "encounter": {
        "reference": "Encounter/47fc088525418d0924dce79fa81a62046f09a53da06f32615b920d159114a675"
      },
      "effectiveDateTime": "2020-10-28T22:19:00+00:00",
      "valueQuantity": {
        "value": 97.03828766553457,
        "unit": "mg/L",
        "system": "http://unitsofmeasure.org",
        "code": "mg/L"
      }
    },
    "request": {
      "method": "POST",
      "url": "Observation",
      "ifNoneExist": "identifier=https://mein.krankenhaus.de/fhir/NamingSystem/observationId|b0badb42a758084b1a626d8341d0ec0db3a54a50586cb9643dd2a28116dffb51"
    }
  }, {
    "fullUrl": "Observation/ef81b8c4c20606d821305ce9a4b97427a0738e82891c892ad86cb9684f88aadc",
    "resource": {
      "resourceType": "Observation",
      "meta": {
        "profile": [ "https://www.medizininformatik-initiative.de/fhir/core/modul-labor/StructureDefinition/ObservationLab" ]
      },
      "identifier": [ {
        "type": {
          "coding": [ {
            "system": "http://terminology.hl7.org/CodeSystem/v2-0203",
            "code": "OBI",
            "display": "Observation Instance Identifier"
          } ]
        },
        "system": "https://mein.krankenhaus.de/fhir/NamingSystem/observationId",
        "value": "e39561d750e0906abc975c0ff7753c5ef656f4ebc916674366b6b3644003a2e9",
        "assigner": {
          "reference": "Organization/3a4f3433bce81181bad2d8e0b8fafccf7dc800bc06f29be73dcb38b750a48f9a"
        }
      } ],
      "status": "final",
      "category": [ {
        "coding": [ {
          "system": "http://terminology.hl7.org/CodeSystem/observation-category",
          "code": "laboratory",
          "display": "Laboratory"
        }, {
          "system": "http://loinc.org",
          "code": "26436-6"
        } ]
      } ],
      "code": {
        "coding": [ {
          "system": "http://loinc.org",
          "code": "2519-7",
          "display": "lactate-in-venous-blood"
        } ],
        "text": "laktat"
      },
      "subject": {
        "reference": "Patient/debc4b76df75a6a49a868d38d812ab4dcd2cf9c135339c35fa1ab482a467b948"
      },
      "encounter": {
        "reference": "Encounter/47fc088525418d0924dce79fa81a62046f09a53da06f32615b920d159114a675"
      },
      "effectiveDateTime": "2020-10-28T22:19:00+00:00",
      "valueQuantity": {
        "value": 35.57130426302994,
        "unit": "mmol/L",
        "system": "http://unitsofmeasure.org",
        "code": "mmol/L"
      }
    },
    "request": {
      "method": "POST",
      "url": "Observation",
      "ifNoneExist": "identifier=https://mein.krankenhaus.de/fhir/NamingSystem/observationId|ef81b8c4c20606d821305ce9a4b97427a0738e82891c892ad86cb9684f88aadc"
    }
  }, {
    "fullUrl": "Observation/aac7dbf44b29d618638c69b02f91f9ec4e4b433fdb68997e9751f737cd026c0c",
    "resource": {
      "resourceType": "Observation",
      "meta": {
        "profile": [ "https://www.medizininformatik-initiative.de/fhir/core/modul-labor/StructureDefinition/ObservationLab" ]
      },
      "identifier": [ {
        "type": {
          "coding": [ {
            "system": "http://terminology.hl7.org/CodeSystem/v2-0203",
            "code": "OBI",
            "display": "Observation Instance Identifier"
          } ]
        },
        "system": "https://mein.krankenhaus.de/fhir/NamingSystem/observationId",
        "value": "9c74a7cf3a2171f53d0eb7b046c29079300aa5acb56db756ce6335ff324c4618",
        "assigner": {
          "reference": "Organization/3a4f3433bce81181bad2d8e0b8fafccf7dc800bc06f29be73dcb38b750a48f9a"
        }
      } ],
      "status": "final",
      "category": [ {
        "coding": [ {
          "system": "http://terminology.hl7.org/CodeSystem/observation-category",
          "code": "laboratory",
          "display": "Laboratory"
        }, {
          "system": "http://loinc.org",
          "code": "26436-6"
        } ]
      } ],
      "code": {
        "coding": [ {
          "system": "http://loinc.org",
          "code": "804-5"
        }, {
          "system": "http://loinc.org",
          "code": "6690-2"
        }, {
          "system": "http://loinc.org",
          "code": "49498-9"
        }, {
          "system": "http://loinc.org",
          "code": "26464-8"
        } ],
        "text": "leukozyten_absolut"
      },
      "subject": {
        "reference": "Patient/debc4b76df75a6a49a868d38d812ab4dcd2cf9c135339c35fa1ab482a467b948"
      },
      "encounter": {
        "reference": "Encounter/47fc088525418d0924dce79fa81a62046f09a53da06f32615b920d159114a675"
      },
      "effectiveDateTime": "2020-10-28T22:19:00+00:00",
      "valueQuantity": {
        "value": 0.7067215912661795,
        "unit": "10*3/uL",
        "system": "http://unitsofmeasure.org",
        "code": "10*3/uL"
      }
    },
    "request": {
      "method": "POST",
      "url": "Observation",
      "ifNoneExist": "identifier=https://mein.krankenhaus.de/fhir/NamingSystem/observationId|aac7dbf44b29d618638c69b02f91f9ec4e4b433fdb68997e9751f737cd026c0c"
    }
  }, {
    "fullUrl": "Observation/6a181d0c625ea042789d482763274c460f10a549e5bb00f45bda9ceacf1df572",
    "resource": {
      "resourceType": "Observation",
      "meta": {
        "profile": [ "https://www.medizininformatik-initiative.de/fhir/core/modul-labor/StructureDefinition/ObservationLab" ]
      },
      "identifier": [ {
        "type": {
          "coding": [ {
            "system": "http://terminology.hl7.org/CodeSystem/v2-0203",
            "code": "OBI",
            "display": "Observation Instance Identifier"
          } ]
        },
        "system": "https://mein.krankenhaus.de/fhir/NamingSystem/observationId",
        "value": "064c0799ba7c07f39a3de418c736301192bfa9c10d798afdc4c133b721d0a378",
        "assigner": {
          "reference": "Organization/3a4f3433bce81181bad2d8e0b8fafccf7dc800bc06f29be73dcb38b750a48f9a"
        }
      } ],
      "status": "final",
      "category": [ {
        "coding": [ {
          "system": "http://terminology.hl7.org/CodeSystem/observation-category",
          "code": "laboratory",
          "display": "Laboratory"
        }, {
          "system": "http://loinc.org",
          "code": "26436-6"
        } ]
      } ],
      "code": {
        "coding": [ {
          "system": "http://loinc.org",
          "code": "26474-7",
          "display": "lymphocytes-in-blood"
        } ],
        "text": "lymphozyten_absolut"
      },
      "subject": {
        "reference": "Patient/debc4b76df75a6a49a868d38d812ab4dcd2cf9c135339c35fa1ab482a467b948"
      },
      "encounter": {
        "reference": "Encounter/47fc088525418d0924dce79fa81a62046f09a53da06f32615b920d159114a675"
      },
      "effectiveDateTime": "2020-10-28T22:19:00+00:00",
      "valueQuantity": {
        "value": 75.01182140742242,
        "unit": "10*3/uL",
        "system": "http://unitsofmeasure.org",
        "code": "10*3/uL"
      }
    },
    "request": {
      "method": "POST",
      "url": "Observation",
      "ifNoneExist": "identifier=https://mein.krankenhaus.de/fhir/NamingSystem/observationId|6a181d0c625ea042789d482763274c460f10a549e5bb00f45bda9ceacf1df572"
    }
  }, {
    "fullUrl": "Observation/4c0e3b387311b22b275ccc7dae8241c728cb0ff9f7fb1af4464701e152f4c646",
    "resource": {
      "resourceType": "Observation",
      "meta": {
        "profile": [ "https://www.medizininformatik-initiative.de/fhir/core/modul-labor/StructureDefinition/ObservationLab" ]
      },
      "identifier": [ {
        "type": {
          "coding": [ {
            "system": "http://terminology.hl7.org/CodeSystem/v2-0203",
            "code": "OBI",
            "display": "Observation Instance Identifier"
          } ]
        },
        "system": "https://mein.krankenhaus.de/fhir/NamingSystem/observationId",
        "value": "05797a6b5c576e7fe8060cf86e1df827c086dbd0fd907a9320e4d4109afc40b9",
        "assigner": {
          "reference": "Organization/3a4f3433bce81181bad2d8e0b8fafccf7dc800bc06f29be73dcb38b750a48f9a"
        }
      } ],
      "status": "final",
      "category": [ {
        "coding": [ {
          "system": "http://terminology.hl7.org/CodeSystem/observation-category",
          "code": "laboratory",
          "display": "Laboratory"
        }, {
          "system": "http://loinc.org",
          "code": "26436-6"
        } ]
      } ],
      "code": {
        "coding": [ {
          "system": "http://loinc.org",
          "code": "751-8",
          "display": "neutrophils-in-blood-by-automated-count"
        } ],
        "text": "neutrophile_absolut"
      },
      "subject": {
        "reference": "Patient/debc4b76df75a6a49a868d38d812ab4dcd2cf9c135339c35fa1ab482a467b948"
      },
      "encounter": {
        "reference": "Encounter/47fc088525418d0924dce79fa81a62046f09a53da06f32615b920d159114a675"
      },
      "effectiveDateTime": "2020-10-28T22:19:00+00:00",
      "valueQuantity": {
        "value": 14.183911070262756,
        "unit": "10*3/uL",
        "system": "http://unitsofmeasure.org",
        "code": "10*3/uL"
      }
    },
    "request": {
      "method": "POST",
      "url": "Observation",
      "ifNoneExist": "identifier=https://mein.krankenhaus.de/fhir/NamingSystem/observationId|4c0e3b387311b22b275ccc7dae8241c728cb0ff9f7fb1af4464701e152f4c646"
    }
  }, {
    "fullUrl": "Observation/8970b9b7ec000a298858d0296340c6d75128534eb92cb5209d80b388cc70e754",
    "resource": {
      "resourceType": "Observation",
      "meta": {
        "profile": [ "https://www.medizininformatik-initiative.de/fhir/core/modul-labor/StructureDefinition/ObservationLab" ]
      },
      "identifier": [ {
        "type": {
          "coding": [ {
            "system": "http://terminology.hl7.org/CodeSystem/v2-0203",
            "code": "OBI",
            "display": "Observation Instance Identifier"
          } ]
        },
        "system": "https://mein.krankenhaus.de/fhir/NamingSystem/observationId",
        "value": "74d08b5459743fa95196b55239d0e9470b7538c5b03bc92101e1ae2124f7340b",
        "assigner": {
          "reference": "Organization/3a4f3433bce81181bad2d8e0b8fafccf7dc800bc06f29be73dcb38b750a48f9a"
        }
      } ],
      "status": "final",
      "category": [ {
        "coding": [ {
          "system": "http://terminology.hl7.org/CodeSystem/observation-category",
          "code": "laboratory",
          "display": "Laboratory"
        }, {
          "system": "http://loinc.org",
          "code": "26436-6"
        } ]
      } ],
      "code": {
        "coding": [ {
          "system": "http://loinc.org",
          "code": "16631-4",
          "display": "aptt-in-blood-by-coagulation-11-saline"
        } ],
        "text": "ptt"
      },
      "subject": {
        "reference": "Patient/debc4b76df75a6a49a868d38d812ab4dcd2cf9c135339c35fa1ab482a467b948"
      },
      "encounter": {
        "reference": "Encounter/47fc088525418d0924dce79fa81a62046f09a53da06f32615b920d159114a675"
      },
      "effectiveDateTime": "2020-10-28T22:19:00+00:00",
      "valueQuantity": {
        "value": 44.67668052200794,
        "unit": "s",
        "system": "http://unitsofmeasure.org",
        "code": "s"
      }
    },
    "request": {
      "method": "POST",
      "url": "Observation",
      "ifNoneExist": "identifier=https://mein.krankenhaus.de/fhir/NamingSystem/observationId|8970b9b7ec000a298858d0296340c6d75128534eb92cb5209d80b388cc70e754"
    }
  }, {
    "fullUrl": "Observation/fb544d1ec7e2ca30ec0a0ebb5e3aa82691c27eb2257335b944363627a555900a",
    "resource": {
      "resourceType": "Observation",
      "meta": {
        "profile": [ "https://www.medizininformatik-initiative.de/fhir/core/modul-labor/StructureDefinition/ObservationLab" ]
      },
      "identifier": [ {
        "type": {
          "coding": [ {
            "system": "http://terminology.hl7.org/CodeSystem/v2-0203",
            "code": "OBI",
            "display": "Observation Instance Identifier"
          } ]
        },
        "system": "https://mein.krankenhaus.de/fhir/NamingSystem/observationId",
        "value": "5566b3df6ccb7d1c527ba2d2c61aa1dab225bade569a37886446eb7cc2d42455",
        "assigner": {
          "reference": "Organization/3a4f3433bce81181bad2d8e0b8fafccf7dc800bc06f29be73dcb38b750a48f9a"
        }
      } ],
      "status": "final",
      "category": [ {
        "coding": [ {
          "system": "http://terminology.hl7.org/CodeSystem/observation-category",
          "code": "laboratory",
          "display": "Laboratory"
        }, {
          "system": "http://loinc.org",
          "code": "26436-6"
        } ]
      } ],
      "code": {
        "coding": [ {
          "system": "http://loinc.org",
          "code": "74464-9",
          "display": "platelets-in-capillary-blood-by-manual-count"
        } ],
        "text": "thrombozyten_absolut"
      },
      "subject": {
        "reference": "Patient/debc4b76df75a6a49a868d38d812ab4dcd2cf9c135339c35fa1ab482a467b948"
      },
      "encounter": {
        "reference": "Encounter/47fc088525418d0924dce79fa81a62046f09a53da06f32615b920d159114a675"
      },
      "effectiveDateTime": "2020-10-28T22:19:00+00:00",
      "valueQuantity": {
        "value": 22.20753781872974,
        "unit": "10*3/uL",
        "system": "http://unitsofmeasure.org",
        "code": "10*3/uL"
      }
    },
    "request": {
      "method": "POST",
      "url": "Observation",
      "ifNoneExist": "identifier=https://mein.krankenhaus.de/fhir/NamingSystem/observationId|fb544d1ec7e2ca30ec0a0ebb5e3aa82691c27eb2257335b944363627a555900a"
    }
  }, {
    "fullUrl": "Observation/1d99d25d85cd8dce460718c04a8480686e40e6a0eaad0cfec91b7e01ec7638e4",
    "resource": {
      "resourceType": "Observation",
      "meta": {
        "profile": [ "https://www.medizininformatik-initiative.de/fhir/core/modul-labor/StructureDefinition/ObservationLab" ]
      },
      "identifier": [ {
        "type": {
          "coding": [ {
            "system": "http://terminology.hl7.org/CodeSystem/v2-0203",
            "code": "OBI",
            "display": "Observation Instance Identifier"
          } ]
        },
        "system": "https://mein.krankenhaus.de/fhir/NamingSystem/observationId",
        "value": "cd19e3f0b85f02b9ac39e3ee7cd54c674e772036d94f999b61264abf7181df8c",
        "assigner": {
          "reference": "Organization/3a4f3433bce81181bad2d8e0b8fafccf7dc800bc06f29be73dcb38b750a48f9a"
        }
      } ],
      "status": "final",
      "category": [ {
        "coding": [ {
          "system": "http://terminology.hl7.org/CodeSystem/observation-category",
          "code": "laboratory",
          "display": "Laboratory"
        }, {
          "system": "http://loinc.org",
          "code": "26436-6"
        } ]
      } ],
      "code": {
        "coding": [ {
          "system": "http://loinc.org",
          "code": "34714-6",
          "display": "inr-in-blood-by-coagulation-assay"
        } ],
        "text": "inr"
      },
      "subject": {
        "reference": "Patient/debc4b76df75a6a49a868d38d812ab4dcd2cf9c135339c35fa1ab482a467b948"
      },
      "encounter": {
        "reference": "Encounter/47fc088525418d0924dce79fa81a62046f09a53da06f32615b920d159114a675"
      },
      "effectiveDateTime": "2020-10-28T22:19:00+00:00",
      "valueQuantity": {
        "value": 44.50367714968757,
        "unit": "{INR}",
        "system": "http://unitsofmeasure.org",
        "code": "{INR}"
      }
    },
    "request": {
      "method": "POST",
      "url": "Observation",
      "ifNoneExist": "identifier=https://mein.krankenhaus.de/fhir/NamingSystem/observationId|1d99d25d85cd8dce460718c04a8480686e40e6a0eaad0cfec91b7e01ec7638e4"
    }
  }, {
    "fullUrl": "Observation/bb3ae55014e28fa4f0114dd2ed3cf19fb37610b4b28919bb74a7db0ddf341f36",
    "resource": {
      "resourceType": "Observation",
      "meta": {
        "profile": [ "https://www.medizininformatik-initiative.de/fhir/core/modul-labor/StructureDefinition/ObservationLab" ]
      },
      "identifier": [ {
        "type": {
          "coding": [ {
            "system": "http://terminology.hl7.org/CodeSystem/v2-0203",
            "code": "OBI",
            "display": "Observation Instance Identifier"
          } ]
        },
        "system": "https://mein.krankenhaus.de/fhir/NamingSystem/observationId",
        "value": "fd087e8258cba525d51d2cf9eb3d46ccedfb7911a6aece89784e6cce0b82b3f5",
        "assigner": {
          "reference": "Organization/3a4f3433bce81181bad2d8e0b8fafccf7dc800bc06f29be73dcb38b750a48f9a"
        }
      } ],
      "status": "final",
      "category": [ {
        "coding": [ {
          "system": "http://terminology.hl7.org/CodeSystem/observation-category",
          "code": "laboratory",
          "display": "Laboratory"
        }, {
          "system": "http://loinc.org",
          "code": "26436-6"
        } ]
      } ],
      "code": {
        "coding": [ {
          "system": "http://loinc.org",
          "code": "76631-1",
          "display": "albumin-in-blood-by-bromocresol-purple-bcp-dye-binding-method"
        } ],
        "text": "serumalbumin"
      },
      "subject": {
        "reference": "Patient/debc4b76df75a6a49a868d38d812ab4dcd2cf9c135339c35fa1ab482a467b948"
      },
      "encounter": {
        "reference": "Encounter/47fc088525418d0924dce79fa81a62046f09a53da06f32615b920d159114a675"
      },
      "effectiveDateTime": "2020-10-28T22:19:00+00:00",
      "valueQuantity": {
        "value": 90.04031389130816,
        "unit": "g/dL",
        "system": "http://unitsofmeasure.org",
        "code": "g/dL"
      }
    },
    "request": {
      "method": "POST",
      "url": "Observation",
      "ifNoneExist": "identifier=https://mein.krankenhaus.de/fhir/NamingSystem/observationId|bb3ae55014e28fa4f0114dd2ed3cf19fb37610b4b28919bb74a7db0ddf341f36"
    }
  }, {
    "fullUrl": "Observation/d3af269247ce2337c80539b35cd4475c42a2b773c5433c6d59d091f48fea8e87",
    "resource": {
      "resourceType": "Observation",
      "meta": {
        "profile": [ "https://www.medizininformatik-initiative.de/fhir/core/modul-labor/StructureDefinition/ObservationLab" ]
      },
      "identifier": [ {
        "type": {
          "coding": [ {
            "system": "http://terminology.hl7.org/CodeSystem/v2-0203",
            "code": "OBI",
            "display": "Observation Instance Identifier"
          } ]
        },
        "system": "https://mein.krankenhaus.de/fhir/NamingSystem/observationId",
        "value": "4a78aa397613ad496993bda2e2c7d39de587f79ccbc1096bfe827f0ea6f2219e",
        "assigner": {
          "reference": "Organization/3a4f3433bce81181bad2d8e0b8fafccf7dc800bc06f29be73dcb38b750a48f9a"
        }
      } ],
      "status": "final",
      "category": [ {
        "coding": [ {
          "system": "http://terminology.hl7.org/CodeSystem/observation-category",
          "code": "laboratory",
          "display": "Laboratory"
        }, {
          "system": "http://loinc.org",
          "code": "26436-6"
        } ]
      } ],
      "code": {
        "coding": [ {
          "system": "http://loinc.org",
          "code": "3174-0",
          "display": "antithrombin-in-platelet-poor-plasma-by-chromogenic-method"
        } ],
        "text": "antithrombin_iii"
      },
      "subject": {
        "reference": "Patient/debc4b76df75a6a49a868d38d812ab4dcd2cf9c135339c35fa1ab482a467b948"
      },
      "encounter": {
        "reference": "Encounter/47fc088525418d0924dce79fa81a62046f09a53da06f32615b920d159114a675"
      },
      "effectiveDateTime": "2020-10-28T22:19:00+00:00",
      "valueQuantity": {
        "value": 19.784457658007483,
        "unit": "[IU]/mL",
        "system": "http://unitsofmeasure.org",
        "code": "[IU]/mL"
      }
    },
    "request": {
      "method": "POST",
      "url": "Observation",
      "ifNoneExist": "identifier=https://mein.krankenhaus.de/fhir/NamingSystem/observationId|d3af269247ce2337c80539b35cd4475c42a2b773c5433c6d59d091f48fea8e87"
    }
  }, {
    "fullUrl": "Observation/78d78dbf48b486d41367444ac57037becef70479723331855012618748e48cd2",
    "resource": {
      "resourceType": "Observation",
      "meta": {
        "profile": [ "https://www.medizininformatik-initiative.de/fhir/core/modul-labor/StructureDefinition/ObservationLab" ]
      },
      "identifier": [ {
        "type": {
          "coding": [ {
            "system": "http://terminology.hl7.org/CodeSystem/v2-0203",
            "code": "OBI",
            "display": "Observation Instance Identifier"
          } ]
        },
        "system": "https://mein.krankenhaus.de/fhir/NamingSystem/observationId",
        "value": "0a0b4c93e37c5eddc4d8c4efbfe39914391daa8aa8a9a4eb585b0c3e9dcb8721",
        "assigner": {
          "reference": "Organization/3a4f3433bce81181bad2d8e0b8fafccf7dc800bc06f29be73dcb38b750a48f9a"
        }
      } ],
      "status": "final",
      "category": [ {
        "coding": [ {
          "system": "http://terminology.hl7.org/CodeSystem/observation-category",
          "code": "laboratory",
          "display": "Laboratory"
        }, {
          "system": "http://loinc.org",
          "code": "26436-6"
        } ]
      } ],
      "code": {
        "coding": [ {
          "system": "http://loinc.org",
          "code": "33959-8",
          "display": "procalcitonin-in-serum-or-plasma"
        } ],
        "text": "pct_procalcitonin"
      },
      "subject": {
        "reference": "Patient/debc4b76df75a6a49a868d38d812ab4dcd2cf9c135339c35fa1ab482a467b948"
      },
      "encounter": {
        "reference": "Encounter/47fc088525418d0924dce79fa81a62046f09a53da06f32615b920d159114a675"
      },
      "effectiveDateTime": "2020-10-28T22:19:00+00:00",
      "valueQuantity": {
        "value": 73.53181179536283,
        "unit": "ng/mL",
        "system": "http://unitsofmeasure.org",
        "code": "ng/mL"
      }
    },
    "request": {
      "method": "POST",
      "url": "Observation",
      "ifNoneExist": "identifier=https://mein.krankenhaus.de/fhir/NamingSystem/observationId|78d78dbf48b486d41367444ac57037becef70479723331855012618748e48cd2"
    }
  }, {
    "fullUrl": "Observation/772f806259ff58b23ac75626e539fdfa3c742c676141af02b8eb9a7da06385da",
    "resource": {
      "resourceType": "Observation",
      "meta": {
        "profile": [ "https://www.medizininformatik-initiative.de/fhir/core/modul-labor/StructureDefinition/ObservationLab" ]
      },
      "identifier": [ {
        "type": {
          "coding": [ {
            "system": "http://terminology.hl7.org/CodeSystem/v2-0203",
            "code": "OBI",
            "display": "Observation Instance Identifier"
          } ]
        },
        "system": "https://mein.krankenhaus.de/fhir/NamingSystem/observationId",
        "value": "cba7837d9306bfb023bc164339b890ada646fa89fb9f7fd3cd918a9d03a245de",
        "assigner": {
          "reference": "Organization/3a4f3433bce81181bad2d8e0b8fafccf7dc800bc06f29be73dcb38b750a48f9a"
        }
      } ],
      "status": "final",
      "category": [ {
        "coding": [ {
          "system": "http://terminology.hl7.org/CodeSystem/observation-category",
          "code": "laboratory",
          "display": "Laboratory"
        }, {
          "system": "http://loinc.org",
          "code": "26436-6"
        } ]
      } ],
      "code": {
        "coding": [ {
          "system": "http://loinc.org",
          "code": "26881-3",
          "display": "interleukin-6-in-serum-or-plasma"
        } ],
        "text": "il6_interleukin_6"
      },
      "subject": {
        "reference": "Patient/debc4b76df75a6a49a868d38d812ab4dcd2cf9c135339c35fa1ab482a467b948"
      },
      "encounter": {
        "reference": "Encounter/47fc088525418d0924dce79fa81a62046f09a53da06f32615b920d159114a675"
      },
      "effectiveDateTime": "2020-10-28T22:19:00+00:00",
      "valueQuantity": {
        "value": 30.62012978044011,
        "unit": "pg/mL",
        "system": "http://unitsofmeasure.org",
        "code": "pg/mL"
      }
    },
    "request": {
      "method": "POST",
      "url": "Observation",
      "ifNoneExist": "identifier=https://mein.krankenhaus.de/fhir/NamingSystem/observationId|772f806259ff58b23ac75626e539fdfa3c742c676141af02b8eb9a7da06385da"
    }
  }, {
    "fullUrl": "Observation/b5a9543bfcf73d01b239541bb534b4fecc4a6728c5b35259feb617428f66b82b",
    "resource": {
      "resourceType": "Observation",
      "meta": {
        "profile": [ "https://www.medizininformatik-initiative.de/fhir/core/modul-labor/StructureDefinition/ObservationLab" ]
      },
      "identifier": [ {
        "type": {
          "coding": [ {
            "system": "http://terminology.hl7.org/CodeSystem/v2-0203",
            "code": "OBI",
            "display": "Observation Instance Identifier"
          } ]
        },
        "system": "https://mein.krankenhaus.de/fhir/NamingSystem/observationId",
        "value": "651fe7371de48de8e0f4388c6126f42d54d631fc662b16e446b1aece3e1c3ae1",
        "assigner": {
          "reference": "Organization/3a4f3433bce81181bad2d8e0b8fafccf7dc800bc06f29be73dcb38b750a48f9a"
        }
      } ],
      "status": "final",
      "category": [ {
        "coding": [ {
          "system": "http://terminology.hl7.org/CodeSystem/observation-category",
          "code": "laboratory",
          "display": "Laboratory"
        }, {
          "system": "http://loinc.org",
          "code": "26436-6"
        } ]
      } ],
      "code": {
        "coding": [ {
          "system": "http://loinc.org",
          "code": "83107-3",
          "display": "natriuretic-peptide.b-prohormone-n-terminal-in-serum-or-plasma-by-immunoassay"
        } ],
        "text": "ntprobnp"
      },
      "subject": {
        "reference": "Patient/debc4b76df75a6a49a868d38d812ab4dcd2cf9c135339c35fa1ab482a467b948"
      },
      "encounter": {
        "reference": "Encounter/47fc088525418d0924dce79fa81a62046f09a53da06f32615b920d159114a675"
      },
      "effectiveDateTime": "2020-10-28T22:19:00+00:00",
      "valueQuantity": {
        "value": 5.0952181341823,
        "unit": "pg/mL",
        "system": "http://unitsofmeasure.org",
        "code": "pg/mL"
      }
    },
    "request": {
      "method": "POST",
      "url": "Observation",
      "ifNoneExist": "identifier=https://mein.krankenhaus.de/fhir/NamingSystem/observationId|b5a9543bfcf73d01b239541bb534b4fecc4a6728c5b35259feb617428f66b82b"
    }
  }, {
    "fullUrl": "Observation/f442a8ba9ff7a7870040fd11a8654e607678e91b5b448b31f72417f7b1389813",
    "resource": {
      "resourceType": "Observation",
      "meta": {
        "profile": [ "https://www.medizininformatik-initiative.de/fhir/core/modul-labor/StructureDefinition/ObservationLab" ]
      },
      "identifier": [ {
        "type": {
          "coding": [ {
            "system": "http://terminology.hl7.org/CodeSystem/v2-0203",
            "code": "OBI",
            "display": "Observation Instance Identifier"
          } ]
        },
        "system": "https://mein.krankenhaus.de/fhir/NamingSystem/observationId",
        "value": "7d62b386a843081c612efa027bbf4739893320b6689d58a2e87e03bca2123051",
        "assigner": {
          "reference": "Organization/3a4f3433bce81181bad2d8e0b8fafccf7dc800bc06f29be73dcb38b750a48f9a"
        }
      } ],
      "status": "final",
      "category": [ {
        "coding": [ {
          "system": "http://terminology.hl7.org/CodeSystem/observation-category",
          "code": "laboratory",
          "display": "Laboratory"
        }, {
          "system": "http://loinc.org",
          "code": "26436-6"
        } ]
      } ],
      "code": {
        "coding": [ {
          "system": "http://loinc.org",
          "code": "3255-7",
          "display": "fibrinogen-in-platelet-poor-plasma-by-coagulation-assay"
        } ],
        "text": "fibrinogen"
      },
      "subject": {
        "reference": "Patient/debc4b76df75a6a49a868d38d812ab4dcd2cf9c135339c35fa1ab482a467b948"
      },
      "encounter": {
        "reference": "Encounter/47fc088525418d0924dce79fa81a62046f09a53da06f32615b920d159114a675"
      },
      "effectiveDateTime": "2020-10-28T22:19:00+00:00",
      "valueQuantity": {
        "value": 42.90916088306989,
        "unit": "mg/dL",
        "system": "http://unitsofmeasure.org",
        "code": "mg/dL"
      }
    },
    "request": {
      "method": "POST",
      "url": "Observation",
      "ifNoneExist": "identifier=https://mein.krankenhaus.de/fhir/NamingSystem/observationId|f442a8ba9ff7a7870040fd11a8654e607678e91b5b448b31f72417f7b1389813"
    }
  }, {
    "fullUrl": "Observation/9efc18172deaf3bb1e3ced545e918acefd44a7cc0887a8d662ee5e8a4df58d42",
    "resource": {
      "resourceType": "Observation",
      "meta": {
        "profile": [ "https://www.netzwerk-universitaetsmedizin.de/fhir/StructureDefinition/sars-cov-2-rt-pcr" ]
      },
      "identifier": [ {
        "type": {
          "coding": [ {
            "system": "http://terminology.hl7.org/CodeSystem/v2-0203",
            "code": "OBI",
            "display": "Observation Instance Identifier"
          } ]
        },
        "system": "https://mein.krankenhaus.de/fhir/NamingSystem/observationId",
        "value": "8905634724f5d5c71c5a75791d2394f81f1fcd4dfc9a03ad09da8fdae4dee30f",
        "assigner": {
          "reference": "Organization/3a4f3433bce81181bad2d8e0b8fafccf7dc800bc06f29be73dcb38b750a48f9a"
        }
      } ],
      "status": "final",
      "category": [ {
        "coding": [ {
          "system": "http://terminology.hl7.org/CodeSystem/observation-category",
          "code": "laboratory",
          "display": "Laboratory"
        }, {
          "system": "http://loinc.org",
          "code": "26436-6"
        } ]
      } ],
      "code": {
        "coding": [ {
          "system": "http://loinc.org",
          "code": "94500-6",
          "display": "sars-cov-2-covid-19-rna-in-respiratory-specimen-by-naa-with-probe-detection"
        } ],
        "text": "SARS-CoV-2-RNA (PCR)"
      },
      "subject": {
        "reference": "Patient/debc4b76df75a6a49a868d38d812ab4dcd2cf9c135339c35fa1ab482a467b948"
      },
      "encounter": {
        "reference": "Encounter/47fc088525418d0924dce79fa81a62046f09a53da06f32615b920d159114a675"
      },
      "effectiveDateTime": "2020-10-28T22:19:00+00:00",
      "valueCodeableConcept": {
        "coding": [ {
          "system": "http://snomed.info/sct",
          "code": "260415000",
          "display": "Not detected (qualifier value)"
        } ],
        "text": "SARS-CoV-2-RNA negativ"
      }
    },
    "request": {
      "method": "POST",
      "url": "Observation",
      "ifNoneExist": "identifier=https://mein.krankenhaus.de/fhir/NamingSystem/observationId|9efc18172deaf3bb1e3ced545e918acefd44a7cc0887a8d662ee5e8a4df58d42"
    }
  }, {
    "fullUrl": "Observation/ec18b615dc3256574a41dd899d8627578eebc21847047c335a84145590b29cf7",
    "resource": {
      "resourceType": "Observation",
      "meta": {
        "profile": [ "https://www.netzwerk-universitaetsmedizin.de/fhir/StructureDefinition/sars-cov-2-ab-pnl-ser-pl-ia" ]
      },
      "identifier": [ {
        "type": {
          "coding": [ {
            "system": "http://terminology.hl7.org/CodeSystem/v2-0203",
            "code": "OBI",
            "display": "Observation Instance Identifier"
          } ]
        },
        "system": "https://mein.krankenhaus.de/fhir/NamingSystem/observationId",
        "value": "b6bd49edae8725a31b4459b97f35f973f0d68531c0497c93fb1dabf146caa7b0",
        "assigner": {
          "reference": "Organization/3a4f3433bce81181bad2d8e0b8fafccf7dc800bc06f29be73dcb38b750a48f9a"
        }
      } ],
      "status": "final",
      "category": [ {
        "coding": [ {
          "system": "http://terminology.hl7.org/CodeSystem/observation-category",
          "code": "laboratory",
          "display": "Laboratory"
        }, {
          "system": "http://loinc.org",
          "code": "26436-6"
        } ]
      } ],
      "code": {
        "coding": [ {
          "system": "http://loinc.org",
          "code": "94504-8"
        } ],
        "text": "sarsco_v2_covid19_ab_pnl"
      },
      "subject": {
        "reference": "Patient/debc4b76df75a6a49a868d38d812ab4dcd2cf9c135339c35fa1ab482a467b948"
      },
      "encounter": {
        "reference": "Encounter/47fc088525418d0924dce79fa81a62046f09a53da06f32615b920d159114a675"
      },
      "effectiveDateTime": "2020-10-28T22:19:00+00:00",
      "hasMember": [ {
        "reference": "Observation/c2c457dccdabb12280627731545f93b2a55e7b9eade26e494bdc04c21c6484cb"
      }, {
        "reference": "Observation/3a37828ee827db58052af22f049e61af5d6074efc37b6990614ad2e805df75c1"
      }, {
        "reference": "Observation/c0da43dd821cf036a8f930932f9ad8da5232da55918fd904c944823b9485c29a"
      }, {
        "reference": "Observation/764390a86e07eb87ce17750c94149ea9b4a24f16238cee42e2092ace61627f76"
      }, {
        "reference": "Observation/9fd81cc1589d8d506ed9e4070aeedebd36981127c078353e29fc515ff7b69744"
      }, {
        "reference": "Observation/ac5caccda4ba998fdfe66e30aed27d70a78f8f391eca03c1b800396244647c43"
      }, {
        "reference": "Observation/4319314497c0971458a4c61bc28911e387a30ee0bb74200895e393b4a0849c71"
      }, {
        "reference": "Observation/6aaadf7255bf2aa3cf87bb1171d50071264388c65f207dc1ce7b2f7830aaf126"
      } ]
    },
    "request": {
      "method": "POST",
      "url": "Observation",
      "ifNoneExist": "identifier=https://mein.krankenhaus.de/fhir/NamingSystem/observationId|ec18b615dc3256574a41dd899d8627578eebc21847047c335a84145590b29cf7"
    }
  }, {
    "fullUrl": "Observation/c2c457dccdabb12280627731545f93b2a55e7b9eade26e494bdc04c21c6484cb",
    "resource": {
      "resourceType": "Observation",
      "meta": {
        "profile": [ "https://www.netzwerk-universitaetsmedizin.de/fhir/StructureDefinition/sars-cov-2-ab-ser-pl-ql-ia" ]
      },
      "identifier": [ {
        "type": {
          "coding": [ {
            "system": "http://terminology.hl7.org/CodeSystem/v2-0203",
            "code": "OBI",
            "display": "Observation Instance Identifier"
          } ]
        },
        "system": "https://mein.krankenhaus.de/fhir/NamingSystem/observationId",
        "value": "6a0cb421304f357f4ed07cacb0a0d9edaa17732de6ab6754dff2c0f347603e51",
        "assigner": {
          "reference": "Organization/3a4f3433bce81181bad2d8e0b8fafccf7dc800bc06f29be73dcb38b750a48f9a"
        }
      } ],
      "status": "final",
      "category": [ {
        "coding": [ {
          "system": "http://terminology.hl7.org/CodeSystem/observation-category",
          "code": "laboratory",
          "display": "Laboratory"
        }, {
          "system": "http://loinc.org",
          "code": "26436-6"
        } ]
      } ],
      "code": {
        "coding": [ {
          "system": "http://loinc.org",
          "code": "94762-2",
          "display": "sars-cov-2-covid-19-ab-in-serum-or-plasma-by-immunoassay"
        } ],
        "text": "sarsco_v2_covid19_ab_ia_ql"
      },
      "subject": {
        "reference": "Patient/debc4b76df75a6a49a868d38d812ab4dcd2cf9c135339c35fa1ab482a467b948"
      },
      "encounter": {
        "reference": "Encounter/47fc088525418d0924dce79fa81a62046f09a53da06f32615b920d159114a675"
      },
      "effectiveDateTime": "2020-10-28T22:19:00+00:00",
      "valueCodeableConcept": {
        "coding": [ {
          "system": "http://snomed.info/sct",
          "code": "260415000"
        } ]
      }
    },
    "request": {
      "method": "POST",
      "url": "Observation",
      "ifNoneExist": "identifier=https://mein.krankenhaus.de/fhir/NamingSystem/observationId|c2c457dccdabb12280627731545f93b2a55e7b9eade26e494bdc04c21c6484cb"
    }
  }, {
    "fullUrl": "Observation/3a37828ee827db58052af22f049e61af5d6074efc37b6990614ad2e805df75c1",
    "resource": {
      "resourceType": "Observation",
      "meta": {
        "profile": [ "https://www.netzwerk-universitaetsmedizin.de/fhir/StructureDefinition/sars-cov-2-ab-ser-pl-ia-acnc" ]
      },
      "identifier": [ {
        "type": {
          "coding": [ {
            "system": "http://terminology.hl7.org/CodeSystem/v2-0203",
            "code": "OBI",
            "display": "Observation Instance Identifier"
          } ]
        },
        "system": "https://mein.krankenhaus.de/fhir/NamingSystem/observationId",
        "value": "b09a363149b75d1db2acde4f35dee6b38f11dbd1fe4e3a39a30214018a2424e2",
        "assigner": {
          "reference": "Organization/3a4f3433bce81181bad2d8e0b8fafccf7dc800bc06f29be73dcb38b750a48f9a"
        }
      } ],
      "status": "final",
      "category": [ {
        "coding": [ {
          "system": "http://terminology.hl7.org/CodeSystem/observation-category",
          "code": "laboratory",
          "display": "Laboratory"
        }, {
          "system": "http://loinc.org",
          "code": "26436-6"
        } ]
      } ],
      "code": {
        "coding": [ {
          "system": "http://loinc.org",
          "code": "94769-7",
          "display": "sars-cov-2-covid-19-ab-in-serum-or-plasma-by-immunoassay"
        } ],
        "text": "sarsco_v2_covid19_ab_ia_qn"
      },
      "subject": {
        "reference": "Patient/debc4b76df75a6a49a868d38d812ab4dcd2cf9c135339c35fa1ab482a467b948"
      },
      "encounter": {
        "reference": "Encounter/47fc088525418d0924dce79fa81a62046f09a53da06f32615b920d159114a675"
      },
      "effectiveDateTime": "2020-10-28T22:19:00+00:00",
      "valueQuantity": {
        "value": 48.930607668505274,
        "unit": "[IU]/mL",
        "system": "http://unitsofmeasure.org",
        "code": "[IU]/mL"
      }
    },
    "request": {
      "method": "POST",
      "url": "Observation",
      "ifNoneExist": "identifier=https://mein.krankenhaus.de/fhir/NamingSystem/observationId|3a37828ee827db58052af22f049e61af5d6074efc37b6990614ad2e805df75c1"
    }
  }, {
    "fullUrl": "Observation/c0da43dd821cf036a8f930932f9ad8da5232da55918fd904c944823b9485c29a",
    "resource": {
      "resourceType": "Observation",
      "meta": {
        "profile": [ "https://www.netzwerk-universitaetsmedizin.de/fhir/StructureDefinition/sars-cov-2-iga-ser-pl-ql-ia" ]
      },
      "identifier": [ {
        "type": {
          "coding": [ {
            "system": "http://terminology.hl7.org/CodeSystem/v2-0203",
            "code": "OBI",
            "display": "Observation Instance Identifier"
          } ]
        },
        "system": "https://mein.krankenhaus.de/fhir/NamingSystem/observationId",
        "value": "52f2d8165f914b4a3706b061baeab8ffd6cccdb4bc4e096b94ddb12891b127ae",
        "assigner": {
          "reference": "Organization/3a4f3433bce81181bad2d8e0b8fafccf7dc800bc06f29be73dcb38b750a48f9a"
        }
      } ],
      "status": "final",
      "category": [ {
        "coding": [ {
          "system": "http://terminology.hl7.org/CodeSystem/observation-category",
          "code": "laboratory",
          "display": "Laboratory"
        }, {
          "system": "http://loinc.org",
          "code": "26436-6"
        } ]
      } ],
      "code": {
        "coding": [ {
          "system": "http://loinc.org",
          "code": "94562-6",
          "display": "sars-cov-2-covid-19-iga-ab-in-serum-or-plasma-by-immunoassay"
        } ],
        "text": "sarsco_v2_covid19_ig_a_ia_ql"
      },
      "subject": {
        "reference": "Patient/debc4b76df75a6a49a868d38d812ab4dcd2cf9c135339c35fa1ab482a467b948"
      },
      "encounter": {
        "reference": "Encounter/47fc088525418d0924dce79fa81a62046f09a53da06f32615b920d159114a675"
      },
      "effectiveDateTime": "2020-10-28T22:19:00+00:00",
      "valueCodeableConcept": {
        "coding": [ {
          "system": "http://snomed.info/sct",
          "code": "419984006"
        } ]
      }
    },
    "request": {
      "method": "POST",
      "url": "Observation",
      "ifNoneExist": "identifier=https://mein.krankenhaus.de/fhir/NamingSystem/observationId|c0da43dd821cf036a8f930932f9ad8da5232da55918fd904c944823b9485c29a"
    }
  }, {
    "fullUrl": "Observation/764390a86e07eb87ce17750c94149ea9b4a24f16238cee42e2092ace61627f76",
    "resource": {
      "resourceType": "Observation",
      "meta": {
        "profile": [ "https://www.netzwerk-universitaetsmedizin.de/fhir/StructureDefinition/sars-cov-2-iga-ser-pl-ia-acnc" ]
      },
      "identifier": [ {
        "type": {
          "coding": [ {
            "system": "http://terminology.hl7.org/CodeSystem/v2-0203",
            "code": "OBI",
            "display": "Observation Instance Identifier"
          } ]
        },
        "system": "https://mein.krankenhaus.de/fhir/NamingSystem/observationId",
        "value": "dbda87d69d6328f5390b12621fd93c3768944d78e550cbfa53e8f91340a7af95",
        "assigner": {
          "reference": "Organization/3a4f3433bce81181bad2d8e0b8fafccf7dc800bc06f29be73dcb38b750a48f9a"
        }
      } ],
      "status": "final",
      "category": [ {
        "coding": [ {
          "system": "http://terminology.hl7.org/CodeSystem/observation-category",
          "code": "laboratory",
          "display": "Laboratory"
        }, {
          "system": "http://loinc.org",
          "code": "26436-6"
        } ]
      } ],
      "code": {
        "coding": [ {
          "system": "http://loinc.org",
          "code": "94720-0",
          "display": "sars-cov-2-covid-19-iga-ab-in-serum-or-plasma-by-immunoassay"
        } ],
        "text": "sarsco_v2_covid19_ig_a_ia_qn"
      },
      "subject": {
        "reference": "Patient/debc4b76df75a6a49a868d38d812ab4dcd2cf9c135339c35fa1ab482a467b948"
      },
      "encounter": {
        "reference": "Encounter/47fc088525418d0924dce79fa81a62046f09a53da06f32615b920d159114a675"
      },
      "effectiveDateTime": "2020-10-28T22:19:00+00:00",
      "valueQuantity": {
        "value": 45.84341188785997,
        "unit": "[IU]/mL",
        "system": "http://unitsofmeasure.org",
        "code": "[IU]/mL"
      }
    },
    "request": {
      "method": "POST",
      "url": "Observation",
      "ifNoneExist": "identifier=https://mein.krankenhaus.de/fhir/NamingSystem/observationId|764390a86e07eb87ce17750c94149ea9b4a24f16238cee42e2092ace61627f76"
    }
  }, {
    "fullUrl": "Observation/9fd81cc1589d8d506ed9e4070aeedebd36981127c078353e29fc515ff7b69744",
    "resource": {
      "resourceType": "Observation",
      "meta": {
        "profile": [ "https://www.netzwerk-universitaetsmedizin.de/fhir/StructureDefinition/sars-cov-2-igg-ser-pl-ql-ia" ]
      },
      "identifier": [ {
        "type": {
          "coding": [ {
            "system": "http://terminology.hl7.org/CodeSystem/v2-0203",
            "code": "OBI",
            "display": "Observation Instance Identifier"
          } ]
        },
        "system": "https://mein.krankenhaus.de/fhir/NamingSystem/observationId",
        "value": "bf8350c8978d4d77065a30c62b76935f4f155da0c7dbc1d0c182f7297d1cd30a",
        "assigner": {
          "reference": "Organization/3a4f3433bce81181bad2d8e0b8fafccf7dc800bc06f29be73dcb38b750a48f9a"
        }
      } ],
      "status": "final",
      "category": [ {
        "coding": [ {
          "system": "http://terminology.hl7.org/CodeSystem/observation-category",
          "code": "laboratory",
          "display": "Laboratory"
        }, {
          "system": "http://loinc.org",
          "code": "26436-6"
        } ]
      } ],
      "code": {
        "coding": [ {
          "system": "http://loinc.org",
          "code": "94563-4",
          "display": "sars-cov-2-covid-19-igg-ab-in-serum-or-plasma-by-immunoassay"
        } ],
        "text": "sarsco_v2_covid19_ig_g_ia_ql"
      },
      "subject": {
        "reference": "Patient/debc4b76df75a6a49a868d38d812ab4dcd2cf9c135339c35fa1ab482a467b948"
      },
      "encounter": {
        "reference": "Encounter/47fc088525418d0924dce79fa81a62046f09a53da06f32615b920d159114a675"
      },
      "effectiveDateTime": "2020-10-28T22:19:00+00:00",
      "valueCodeableConcept": {
        "coding": [ {
          "system": "http://snomed.info/sct",
          "code": "260415000"
        } ]
      }
    },
    "request": {
      "method": "POST",
      "url": "Observation",
      "ifNoneExist": "identifier=https://mein.krankenhaus.de/fhir/NamingSystem/observationId|9fd81cc1589d8d506ed9e4070aeedebd36981127c078353e29fc515ff7b69744"
    }
  }, {
    "fullUrl": "Observation/ac5caccda4ba998fdfe66e30aed27d70a78f8f391eca03c1b800396244647c43",
    "resource": {
      "resourceType": "Observation",
      "meta": {
        "profile": [ "https://www.netzwerk-universitaetsmedizin.de/fhir/StructureDefinition/sars-cov-2-igg-ser-pl-ia-acnc" ]
      },
      "identifier": [ {
        "type": {
          "coding": [ {
            "system": "http://terminology.hl7.org/CodeSystem/v2-0203",
            "code": "OBI",
            "display": "Observation Instance Identifier"
          } ]
        },
        "system": "https://mein.krankenhaus.de/fhir/NamingSystem/observationId",
        "value": "0e02031cda2d71014abd98bb70ee7bbbb137ed829c43ff206b80dca74f221c0f",
        "assigner": {
          "reference": "Organization/3a4f3433bce81181bad2d8e0b8fafccf7dc800bc06f29be73dcb38b750a48f9a"
        }
      } ],
      "status": "final",
      "category": [ {
        "coding": [ {
          "system": "http://terminology.hl7.org/CodeSystem/observation-category",
          "code": "laboratory",
          "display": "Laboratory"
        }, {
          "system": "http://loinc.org",
          "code": "26436-6"
        } ]
      } ],
      "code": {
        "coding": [ {
          "system": "http://loinc.org",
          "code": "94505-5",
          "display": "sars-cov-2-covid-19-igg-ab-in-serum-or-plasma-by-immunoassay"
        } ],
        "text": "sarsco_v2_covid19_ig_g_ia_qn"
      },
      "subject": {
        "reference": "Patient/debc4b76df75a6a49a868d38d812ab4dcd2cf9c135339c35fa1ab482a467b948"
      },
      "encounter": {
        "reference": "Encounter/47fc088525418d0924dce79fa81a62046f09a53da06f32615b920d159114a675"
      },
      "effectiveDateTime": "2020-10-28T22:19:00+00:00",
      "valueQuantity": {
        "value": 9.490871918232003,
        "unit": "[arb'U]/mL",
        "system": "http://unitsofmeasure.org",
        "code": "[arb'U]/mL"
      }
    },
    "request": {
      "method": "POST",
      "url": "Observation",
      "ifNoneExist": "identifier=https://mein.krankenhaus.de/fhir/NamingSystem/observationId|ac5caccda4ba998fdfe66e30aed27d70a78f8f391eca03c1b800396244647c43"
    }
  }, {
    "fullUrl": "Observation/4319314497c0971458a4c61bc28911e387a30ee0bb74200895e393b4a0849c71",
    "resource": {
      "resourceType": "Observation",
      "meta": {
        "profile": [ "https://www.netzwerk-universitaetsmedizin.de/fhir/StructureDefinition/sars-cov-2-igm-ser-pl-ql-ia" ]
      },
      "identifier": [ {
        "type": {
          "coding": [ {
            "system": "http://terminology.hl7.org/CodeSystem/v2-0203",
            "code": "OBI",
            "display": "Observation Instance Identifier"
          } ]
        },
        "system": "https://mein.krankenhaus.de/fhir/NamingSystem/observationId",
        "value": "5fa4aa4ae653c96388d3201e8a78e6428f24fac003d7982be62fe2adde478503",
        "assigner": {
          "reference": "Organization/3a4f3433bce81181bad2d8e0b8fafccf7dc800bc06f29be73dcb38b750a48f9a"
        }
      } ],
      "status": "final",
      "category": [ {
        "coding": [ {
          "system": "http://terminology.hl7.org/CodeSystem/observation-category",
          "code": "laboratory",
          "display": "Laboratory"
        }, {
          "system": "http://loinc.org",
          "code": "26436-6"
        } ]
      } ],
      "code": {
        "coding": [ {
          "system": "http://loinc.org",
          "code": "94564-2",
          "display": "sars-cov-2-covid-19-igm-ab-in-serum-or-plasma-by-immunoassay"
        } ],
        "text": "sarsco_v2_covid19_ig_m_ia_ql"
      },
      "subject": {
        "reference": "Patient/debc4b76df75a6a49a868d38d812ab4dcd2cf9c135339c35fa1ab482a467b948"
      },
      "encounter": {
        "reference": "Encounter/47fc088525418d0924dce79fa81a62046f09a53da06f32615b920d159114a675"
      },
      "effectiveDateTime": "2020-10-28T22:19:00+00:00",
      "valueCodeableConcept": {
        "coding": [ {
          "system": "http://snomed.info/sct",
          "code": "419984006"
        } ]
      }
    },
    "request": {
      "method": "POST",
      "url": "Observation",
      "ifNoneExist": "identifier=https://mein.krankenhaus.de/fhir/NamingSystem/observationId|4319314497c0971458a4c61bc28911e387a30ee0bb74200895e393b4a0849c71"
    }
  }, {
    "fullUrl": "Observation/6aaadf7255bf2aa3cf87bb1171d50071264388c65f207dc1ce7b2f7830aaf126",
    "resource": {
      "resourceType": "Observation",
      "meta": {
        "profile": [ "https://www.netzwerk-universitaetsmedizin.de/fhir/StructureDefinition/sars-cov-2-igm-ser-pl-ia-acnc" ]
      },
      "identifier": [ {
        "type": {
          "coding": [ {
            "system": "http://terminology.hl7.org/CodeSystem/v2-0203",
            "code": "OBI",
            "display": "Observation Instance Identifier"
          } ]
        },
        "system": "https://mein.krankenhaus.de/fhir/NamingSystem/observationId",
        "value": "c7cc38dc8de4ce2ae51be6fc04ad36c2db2d495aaeb5782d7722eece16ed8a2f",
        "assigner": {
          "reference": "Organization/3a4f3433bce81181bad2d8e0b8fafccf7dc800bc06f29be73dcb38b750a48f9a"
        }
      } ],
      "status": "final",
      "category": [ {
        "coding": [ {
          "system": "http://terminology.hl7.org/CodeSystem/observation-category",
          "code": "laboratory",
          "display": "Laboratory"
        }, {
          "system": "http://loinc.org",
          "code": "26436-6"
        } ]
      } ],
      "code": {
        "coding": [ {
          "system": "http://loinc.org",
          "code": "94506-3",
          "display": "sars-cov-2-covid-19-igm-ab-in-serum-or-plasma-by-immunoassay"
        } ],
        "text": "sarsco_v2_covid19_ig_m_ia_qn"
      },
      "subject": {
        "reference": "Patient/debc4b76df75a6a49a868d38d812ab4dcd2cf9c135339c35fa1ab482a467b948"
      },
      "encounter": {
        "reference": "Encounter/47fc088525418d0924dce79fa81a62046f09a53da06f32615b920d159114a675"
      },
      "effectiveDateTime": "2020-10-28T22:19:00+00:00",
      "valueQuantity": {
        "value": 48.726425716561664,
        "unit": "[arb'U]/mL",
        "system": "http://unitsofmeasure.org",
        "code": "[arb'U]/mL"
      }
    },
    "request": {
      "method": "POST",
      "url": "Observation",
      "ifNoneExist": "identifier=https://mein.krankenhaus.de/fhir/NamingSystem/observationId|6aaadf7255bf2aa3cf87bb1171d50071264388c65f207dc1ce7b2f7830aaf126"
    }
  }, {
    "fullUrl": "MedicationStatement/bafbf209475aef84a234caeb4f4205c66edb6dd194b3004aa296e789a44d5737",
    "resource": {
      "resourceType": "MedicationStatement",
      "meta": {
        "profile": [ "https://www.netzwerk-universitaetsmedizin.de/fhir/StructureDefinition/pharmacological-therapy" ]
      },
      "identifier": [ {
        "system": "https://mein.krankenhaus.de/fhir/NamingSystem/medicationstatementId",
        "value": "2e1e3bac5a6f7519b441f5638a5e72c34f4e57ae60e7fa24263d49ee779fce3c"
      } ],
      "status": "active",
      "medicationCodeableConcept": {
        "coding": [ {
          "system": "http://snomed.info/sct",
          "code": "41549009"
        } ],
        "text": "ACE inhibitors"
      },
      "subject": {
        "reference": "Patient/debc4b76df75a6a49a868d38d812ab4dcd2cf9c135339c35fa1ab482a467b948"
      },
      "effectiveDateTime": "2020-09-29T13:58:00+00:00"
    },
    "request": {
      "method": "POST",
      "url": "MedicationStatement",
      "ifNoneExist": "identifier=https://mein.krankenhaus.de/fhir/NamingSystem/medicationstatementId|bafbf209475aef84a234caeb4f4205c66edb6dd194b3004aa296e789a44d5737"
    }
  }, {
    "fullUrl": "MedicationStatement/10173b4decd6df08cd745a0e4b84d9563988b4d7766827ba6f53f0e556ef44ef",
    "resource": {
      "resourceType": "MedicationStatement",
      "meta": {
        "profile": [ "https://www.netzwerk-universitaetsmedizin.de/fhir/StructureDefinition/pharmacological-therapy" ]
      },
      "identifier": [ {
        "system": "https://mein.krankenhaus.de/fhir/NamingSystem/medicationstatementId",
        "value": "c6c529e00b6d80a7589835db884a82c9f51ed17571b51a22b035f577780ac2fb"
      } ],
      "status": "not-taken",
      "medicationCodeableConcept": {
        "coding": [ {
          "system": "http://snomed.info/sct",
          "code": "333710000"
        } ],
        "text": "immunoglobulins"
      },
      "subject": {
        "reference": "Patient/debc4b76df75a6a49a868d38d812ab4dcd2cf9c135339c35fa1ab482a467b948"
      },
      "effectiveDateTime": "2020-09-29T13:58:00+00:00"
    },
    "request": {
      "method": "POST",
      "url": "MedicationStatement",
      "ifNoneExist": "identifier=https://mein.krankenhaus.de/fhir/NamingSystem/medicationstatementId|10173b4decd6df08cd745a0e4b84d9563988b4d7766827ba6f53f0e556ef44ef"
    }
  }, {
    "fullUrl": "MedicationStatement/69bb46be33f59f5522f9552adcd46a887036912caf360ed5d873caa58a6d89e4",
    "resource": {
      "resourceType": "MedicationStatement",
      "meta": {
        "profile": [ "https://www.netzwerk-universitaetsmedizin.de/fhir/StructureDefinition/pharmacological-therapy" ]
      },
      "identifier": [ {
        "system": "https://mein.krankenhaus.de/fhir/NamingSystem/medicationstatementId",
        "value": "26e7d5a30416515b088f3d8a53ee5950739869df07ad4b75532e5866d08d0d29"
      } ],
      "status": "not-taken",
      "medicationCodeableConcept": {
        "coding": [ {
          "system": "http://fhir.de/CodeSystem/dimdi/atc",
          "code": "N02B"
        }, {
          "system": "https://www.netzwerk-universitaetsmedizin.de/fhir/CodeSystem/ecrf-parameter-codes",
          "code": "antipyretic"
        } ]
      },
      "subject": {
        "reference": "Patient/debc4b76df75a6a49a868d38d812ab4dcd2cf9c135339c35fa1ab482a467b948"
      },
      "effectiveDateTime": "2020-11-25T10:51:00+00:00"
    },
    "request": {
      "method": "POST",
      "url": "MedicationStatement",
      "ifNoneExist": "identifier=https://mein.krankenhaus.de/fhir/NamingSystem/medicationstatementId|69bb46be33f59f5522f9552adcd46a887036912caf360ed5d873caa58a6d89e4"
    }
  }, {
    "fullUrl": "MedicationStatement/c710bd19a1dac604cbc57241df1d1c4ba0af6170b97b99be1a3e59a931d86dad",
    "resource": {
      "resourceType": "MedicationStatement",
      "meta": {
        "profile": [ "https://www.netzwerk-universitaetsmedizin.de/fhir/StructureDefinition/pharmacological-therapy" ]
      },
      "identifier": [ {
        "system": "https://mein.krankenhaus.de/fhir/NamingSystem/medicationstatementId",
        "value": "6d6c8d3ae31d45ca083cce9d5d170f44d15bbae985d326014bf3029dbfcc34c8"
      } ],
      "status": "not-taken",
      "medicationCodeableConcept": {
        "coding": [ {
          "system": "http://fhir.de/CodeSystem/dimdi/atc",
          "code": "G01B"
        }, {
          "system": "http://fhir.de/CodeSystem/dimdi/atc",
          "code": "H02"
        }, {
          "system": "http://fhir.de/CodeSystem/dimdi/atc",
          "code": "M01BA"
        }, {
          "system": "http://fhir.de/CodeSystem/dimdi/atc",
          "code": "R03AK"
        }, {
          "system": "http://fhir.de/CodeSystem/dimdi/atc",
          "code": "S02B"
        }, {
          "system": "http://fhir.de/CodeSystem/dimdi/atc",
          "code": "R03AL"
        }, {
          "system": "http://snomed.info/sct",
          "code": "768759001"
        } ]
      },
      "subject": {
        "reference": "Patient/debc4b76df75a6a49a868d38d812ab4dcd2cf9c135339c35fa1ab482a467b948"
      },
      "effectiveDateTime": "2020-11-25T10:51:00+00:00"
    },
    "request": {
      "method": "POST",
      "url": "MedicationStatement",
      "ifNoneExist": "identifier=https://mein.krankenhaus.de/fhir/NamingSystem/medicationstatementId|c710bd19a1dac604cbc57241df1d1c4ba0af6170b97b99be1a3e59a931d86dad"
    }
  }, {
    "fullUrl": "MedicationStatement/077bcee7f1f8cb9b3e7187702888e0e95f18f9c5c2485cf74a344c6d7899acba",
    "resource": {
      "resourceType": "MedicationStatement",
      "meta": {
        "profile": [ "https://www.netzwerk-universitaetsmedizin.de/fhir/StructureDefinition/pharmacological-therapy" ]
      },
      "identifier": [ {
        "system": "https://mein.krankenhaus.de/fhir/NamingSystem/medicationstatementId",
        "value": "24dbac4cc9699d070695601fdb4b4b422f89db6a54d2e995fdf4aea0745947ee"
      } ],
      "status": "unknown",
      "medicationCodeableConcept": {
        "coding": [ {
          "system": "http://fhir.de/CodeSystem/dimdi/atc",
          "code": "J05AE08"
        }, {
          "system": "http://fhir.de/CodeSystem/dimdi/atc",
          "code": "J05AR15"
        }, {
          "system": "http://fhir.de/CodeSystem/dimdi/atc",
          "code": "J05AR23"
        }, {
          "system": "http://snomed.info/sct",
          "code": "413591007"
        } ]
      },
      "subject": {
        "reference": "Patient/debc4b76df75a6a49a868d38d812ab4dcd2cf9c135339c35fa1ab482a467b948"
      },
      "effectiveDateTime": "2020-11-25T10:51:00+00:00"
    },
    "request": {
      "method": "POST",
      "url": "MedicationStatement",
      "ifNoneExist": "identifier=https://mein.krankenhaus.de/fhir/NamingSystem/medicationstatementId|077bcee7f1f8cb9b3e7187702888e0e95f18f9c5c2485cf74a344c6d7899acba"
    }
  }, {
    "fullUrl": "MedicationStatement/a519103a3acd93e6ebfb8b3f6678ea53f487b7171f5ceb2042a716a120c88b7c",
    "resource": {
      "resourceType": "MedicationStatement",
      "meta": {
        "profile": [ "https://www.netzwerk-universitaetsmedizin.de/fhir/StructureDefinition/pharmacological-therapy" ]
      },
      "identifier": [ {
        "system": "https://mein.krankenhaus.de/fhir/NamingSystem/medicationstatementId",
        "value": "8142ad5ebdd388519542f898b891a973c08852a326b65b67538cf6a2bd26e7a7"
      } ],
      "status": "active",
      "medicationCodeableConcept": {
        "coding": [ {
          "system": "http://snomed.info/sct",
          "code": "424096001"
        } ]
      },
      "subject": {
        "reference": "Patient/debc4b76df75a6a49a868d38d812ab4dcd2cf9c135339c35fa1ab482a467b948"
      },
      "effectiveDateTime": "2020-11-25T10:51:00+00:00"
    },
    "request": {
      "method": "POST",
      "url": "MedicationStatement",
      "ifNoneExist": "identifier=https://mein.krankenhaus.de/fhir/NamingSystem/medicationstatementId|a519103a3acd93e6ebfb8b3f6678ea53f487b7171f5ceb2042a716a120c88b7c"
    }
  }, {
    "fullUrl": "MedicationStatement/1bb4081d82fed004dbb2c755be1b26aefe57be9658f174892d304c31e8b0218c",
    "resource": {
      "resourceType": "MedicationStatement",
      "meta": {
        "profile": [ "https://www.netzwerk-universitaetsmedizin.de/fhir/StructureDefinition/pharmacological-therapy" ]
      },
      "identifier": [ {
        "system": "https://mein.krankenhaus.de/fhir/NamingSystem/medicationstatementId",
        "value": "ea010f547f6d6c753be347296e9d1af5f9e8f9f322e757c378e959516c79340f"
      } ],
      "status": "not-taken",
      "medicationCodeableConcept": {
        "coding": [ {
          "system": "http://fhir.de/CodeSystem/dimdi/atc",
          "code": "P01BA01"
        }, {
          "system": "http://snomed.info/sct",
          "code": "14728000"
        } ]
      },
      "subject": {
        "reference": "Patient/debc4b76df75a6a49a868d38d812ab4dcd2cf9c135339c35fa1ab482a467b948"
      },
      "effectiveDateTime": "2020-11-25T10:51:00+00:00"
    },
    "request": {
      "method": "POST",
      "url": "MedicationStatement",
      "ifNoneExist": "identifier=https://mein.krankenhaus.de/fhir/NamingSystem/medicationstatementId|1bb4081d82fed004dbb2c755be1b26aefe57be9658f174892d304c31e8b0218c"
    }
  }, {
    "fullUrl": "MedicationStatement/6c6e7906ba928479024e1c83c484f52c3afe480fefd296d541ca017332a13b1a",
    "resource": {
      "resourceType": "MedicationStatement",
      "meta": {
        "profile": [ "https://www.netzwerk-universitaetsmedizin.de/fhir/StructureDefinition/pharmacological-therapy" ]
      },
      "identifier": [ {
        "system": "https://mein.krankenhaus.de/fhir/NamingSystem/medicationstatementId",
        "value": "7dc72831825e3b26a90c2fbd55b6e96e14971d54d7b6416135e68394ec0ad711"
      } ],
      "status": "unknown",
      "medicationCodeableConcept": {
        "coding": [ {
          "system": "http://fhir.de/CodeSystem/dimdi/atc",
          "code": "P01BA02"
        }, {
          "system": "http://snomed.info/sct",
          "code": "83490000"
        } ]
      },
      "subject": {
        "reference": "Patient/debc4b76df75a6a49a868d38d812ab4dcd2cf9c135339c35fa1ab482a467b948"
      },
      "effectiveDateTime": "2020-11-25T10:51:00+00:00"
    },
    "request": {
      "method": "POST",
      "url": "MedicationStatement",
      "ifNoneExist": "identifier=https://mein.krankenhaus.de/fhir/NamingSystem/medicationstatementId|6c6e7906ba928479024e1c83c484f52c3afe480fefd296d541ca017332a13b1a"
    }
  }, {
    "fullUrl": "MedicationStatement/d4378bdbcb91fa60e89b4038c5edf3c0adb80652c44427b3465900cfc1181af0",
    "resource": {
      "resourceType": "MedicationStatement",
      "meta": {
        "profile": [ "https://www.netzwerk-universitaetsmedizin.de/fhir/StructureDefinition/pharmacological-therapy" ]
      },
      "identifier": [ {
        "system": "https://mein.krankenhaus.de/fhir/NamingSystem/medicationstatementId",
        "value": "4a3a77fbfec01cf569cc970d292345a6c400954cdc76df8b806a1ada3faf32ec"
      } ],
      "status": "unknown",
      "medicationCodeableConcept": {
        "coding": [ {
          "system": "http://fhir.de/CodeSystem/dimdi/atc",
          "code": "J05AB06"
        }, {
          "system": "http://fhir.de/CodeSystem/dimdi/atc",
          "code": "S01AD09"
        }, {
          "system": "http://snomed.info/sct",
          "code": "78025001"
        } ]
      },
      "subject": {
        "reference": "Patient/debc4b76df75a6a49a868d38d812ab4dcd2cf9c135339c35fa1ab482a467b948"
      },
      "effectiveDateTime": "2020-11-25T10:51:00+00:00"
    },
    "request": {
      "method": "POST",
      "url": "MedicationStatement",
      "ifNoneExist": "identifier=https://mein.krankenhaus.de/fhir/NamingSystem/medicationstatementId|d4378bdbcb91fa60e89b4038c5edf3c0adb80652c44427b3465900cfc1181af0"
    }
  }, {
    "fullUrl": "MedicationStatement/53be8370d71112cd89dfc41ff2784e80906bdcaffa80c703165613e967b2ce20",
    "resource": {
      "resourceType": "MedicationStatement",
      "meta": {
        "profile": [ "https://www.netzwerk-universitaetsmedizin.de/fhir/StructureDefinition/pharmacological-therapy" ]
      },
      "identifier": [ {
        "system": "https://mein.krankenhaus.de/fhir/NamingSystem/medicationstatementId",
        "value": "ceecc9fc51b3418097338853d8b5363c74ed4823b4e82ad8810c20bb5e9f1342"
      } ],
      "status": "not-taken",
      "medicationCodeableConcept": {
        "coding": [ {
          "system": "http://fhir.de/CodeSystem/dimdi/atc",
          "code": "J05AH02"
        }, {
          "system": "http://snomed.info/sct",
          "code": "386142008"
        } ]
      },
      "subject": {
        "reference": "Patient/debc4b76df75a6a49a868d38d812ab4dcd2cf9c135339c35fa1ab482a467b948"
      },
      "effectiveDateTime": "2020-11-25T10:51:00+00:00"
    },
    "request": {
      "method": "POST",
      "url": "MedicationStatement",
      "ifNoneExist": "identifier=https://mein.krankenhaus.de/fhir/NamingSystem/medicationstatementId|53be8370d71112cd89dfc41ff2784e80906bdcaffa80c703165613e967b2ce20"
    }
  }, {
    "fullUrl": "MedicationStatement/6890fc7a7bc75855cf2108fa57f73c50d051047061354baa11ad735f6aaf6191",
    "resource": {
      "resourceType": "MedicationStatement",
      "meta": {
        "profile": [ "https://www.netzwerk-universitaetsmedizin.de/fhir/StructureDefinition/pharmacological-therapy" ]
      },
      "identifier": [ {
        "system": "https://mein.krankenhaus.de/fhir/NamingSystem/medicationstatementId",
        "value": "0dd9bf10e3e0ed3dda43981d969c3b4f4d948c4e63d628e297a16ebba6af5aea"
      } ],
      "status": "not-taken",
      "medicationCodeableConcept": {
        "coding": [ {
          "system": "http://fdasis.nlm.nih.gov",
          "code": "3QKI37EEHE"
        }, {
          "system": "http://snomed.info/sct",
          "code": "870518005"
        } ]
      },
      "subject": {
        "reference": "Patient/debc4b76df75a6a49a868d38d812ab4dcd2cf9c135339c35fa1ab482a467b948"
      },
      "effectiveDateTime": "2020-11-25T10:51:00+00:00"
    },
    "request": {
      "method": "POST",
      "url": "MedicationStatement",
      "ifNoneExist": "identifier=https://mein.krankenhaus.de/fhir/NamingSystem/medicationstatementId|6890fc7a7bc75855cf2108fa57f73c50d051047061354baa11ad735f6aaf6191"
    }
  }, {
    "fullUrl": "MedicationStatement/25ca16224da1e18b2fa5ddf94392d9523ec3acc1a3b148d2bf0b9cb3b1ff24fd",
    "resource": {
      "resourceType": "MedicationStatement",
      "meta": {
        "profile": [ "https://www.netzwerk-universitaetsmedizin.de/fhir/StructureDefinition/pharmacological-therapy" ]
      },
      "identifier": [ {
        "system": "https://mein.krankenhaus.de/fhir/NamingSystem/medicationstatementId",
        "value": "be3a52a100a6c68b9314a91c010b24735546a5d894efaa7876f55ebb1e7e08a1"
      } ],
      "status": "active",
      "medicationCodeableConcept": {
        "coding": [ {
          "system": "http://fhir.de/CodeSystem/dimdi/atc",
          "code": "J05AP01"
        }, {
          "system": "http://snomed.info/sct",
          "code": "35063004"
        } ]
      },
      "subject": {
        "reference": "Patient/debc4b76df75a6a49a868d38d812ab4dcd2cf9c135339c35fa1ab482a467b948"
      },
      "effectiveDateTime": "2020-11-25T10:51:00+00:00"
    },
    "request": {
      "method": "POST",
      "url": "MedicationStatement",
      "ifNoneExist": "identifier=https://mein.krankenhaus.de/fhir/NamingSystem/medicationstatementId|25ca16224da1e18b2fa5ddf94392d9523ec3acc1a3b148d2bf0b9cb3b1ff24fd"
    }
  }, {
    "fullUrl": "MedicationStatement/3458ff7d48b3d279057536f03fa5c835fd6d6162d0a35f51853d85e0a2dd2f2e",
    "resource": {
      "resourceType": "MedicationStatement",
      "meta": {
        "profile": [ "https://www.netzwerk-universitaetsmedizin.de/fhir/StructureDefinition/pharmacological-therapy" ]
      },
      "identifier": [ {
        "system": "https://mein.krankenhaus.de/fhir/NamingSystem/medicationstatementId",
        "value": "c86b5edd236b007a26e0e30b68e71a5ee5436e763c2d84703b9005fde189d73f"
      } ],
      "status": "active",
      "medicationCodeableConcept": {
        "coding": [ {
          "system": "http://fhir.de/CodeSystem/dimdi/atc",
          "code": "B02AB04"
        }, {
          "system": "https://www.netzwerk-universitaetsmedizin.de/fhir/CodeSystem/ecrf-parameter-codes",
          "code": "camostat"
        } ]
      },
      "subject": {
        "reference": "Patient/debc4b76df75a6a49a868d38d812ab4dcd2cf9c135339c35fa1ab482a467b948"
      },
      "effectiveDateTime": "2020-11-25T10:51:00+00:00"
    },
    "request": {
      "method": "POST",
      "url": "MedicationStatement",
      "ifNoneExist": "identifier=https://mein.krankenhaus.de/fhir/NamingSystem/medicationstatementId|3458ff7d48b3d279057536f03fa5c835fd6d6162d0a35f51853d85e0a2dd2f2e"
    }
  }, {
    "fullUrl": "MedicationStatement/1c0cc1554481a2246e5e9ad549ca6c42cb6171e099cfbb868d80e40292513e6d",
    "resource": {
      "resourceType": "MedicationStatement",
      "meta": {
        "profile": [ "https://www.netzwerk-universitaetsmedizin.de/fhir/StructureDefinition/pharmacological-therapy" ]
      },
      "identifier": [ {
        "system": "https://mein.krankenhaus.de/fhir/NamingSystem/medicationstatementId",
        "value": "d35e78abdc27aa14c3fc9b1989533cd7c8a93d1545870b632e76852e1046c6b5"
      } ],
      "status": "unknown",
      "medicationCodeableConcept": {
        "coding": [ {
          "system": "http://fhir.de/CodeSystem/dimdi/atc",
          "code": "J05AX27"
        }, {
          "system": "https://www.netzwerk-universitaetsmedizin.de/fhir/CodeSystem/ecrf-parameter-codes",
          "code": "favipiravir"
        } ]
      },
      "subject": {
        "reference": "Patient/debc4b76df75a6a49a868d38d812ab4dcd2cf9c135339c35fa1ab482a467b948"
      },
      "effectiveDateTime": "2020-11-25T10:51:00+00:00"
    },
    "request": {
      "method": "POST",
      "url": "MedicationStatement",
      "ifNoneExist": "identifier=https://mein.krankenhaus.de/fhir/NamingSystem/medicationstatementId|1c0cc1554481a2246e5e9ad549ca6c42cb6171e099cfbb868d80e40292513e6d"
    }
  }, {
    "fullUrl": "MedicationStatement/3728ed032a1f94b02bd5322c93e170380fc1fde50ceba31af4cffe92954c6668",
    "resource": {
      "resourceType": "MedicationStatement",
      "meta": {
        "profile": [ "https://www.netzwerk-universitaetsmedizin.de/fhir/StructureDefinition/pharmacological-therapy" ]
      },
      "identifier": [ {
        "system": "https://mein.krankenhaus.de/fhir/NamingSystem/medicationstatementId",
        "value": "e8ff8c3cbb7d973948f362cea5108bc1aa313cc4085213d5cdbe0c593aca82c0"
      } ],
      "status": "unknown",
      "medicationCodeableConcept": {
        "coding": [ {
          "system": "urn:oid:2.16.840.1.113883.6.18.2.6",
          "code": "E9743"
        }, {
          "system": "urn:oid:2.16.840.1.113883.6.18.2.6",
          "code": "E9744"
        }, {
          "system": "urn:oid:2.16.840.1.113883.6.18.2.6",
          "code": "E9745"
        }, {
          "system": "urn:oid:2.16.840.1.113883.6.18.2.6",
          "code": "E9746"
        }, {
          "system": "urn:oid:2.16.840.1.113883.6.18.2.6",
          "code": "E9747"
        }, {
          "system": "urn:oid:2.16.840.1.113883.6.18.2.6",
          "code": "E9748"
        }, {
          "system": "urn:oid:2.16.840.1.113883.6.18.2.6",
          "code": "E9749"
        }, {
          "system": "urn:oid:2.16.840.1.113883.6.18.2.6",
          "code": "E9750"
        }, {
          "system": "urn:oid:2.16.840.1.113883.6.18.2.6",
          "code": "E9752"
        }, {
          "system": "https://www.netzwerk-universitaetsmedizin.de/fhir/CodeSystem/ecrf-parameter-codes",
          "code": "convalescent-plasma"
        } ]
      },
      "subject": {
        "reference": "Patient/debc4b76df75a6a49a868d38d812ab4dcd2cf9c135339c35fa1ab482a467b948"
      },
      "effectiveDateTime": "2020-11-25T10:51:00+00:00"
    },
    "request": {
      "method": "POST",
      "url": "MedicationStatement",
      "ifNoneExist": "identifier=https://mein.krankenhaus.de/fhir/NamingSystem/medicationstatementId|3728ed032a1f94b02bd5322c93e170380fc1fde50ceba31af4cffe92954c6668"
    }
  }, {
    "fullUrl": "MedicationStatement/378e61ad7102eca863047599cf80a91a6ead322369b5478dfe986fef0446ddc0",
    "resource": {
      "resourceType": "MedicationStatement",
      "meta": {
        "profile": [ "https://www.netzwerk-universitaetsmedizin.de/fhir/StructureDefinition/pharmacological-therapy" ]
      },
      "identifier": [ {
        "system": "https://mein.krankenhaus.de/fhir/NamingSystem/medicationstatementId",
        "value": "b51ed7be3a211cca73e63f457ecc22f441c838b8d7ea7f03990387183be9c65d"
      } ],
      "status": "unknown",
      "medicationCodeableConcept": {
        "coding": [ {
          "system": "https://www.netzwerk-universitaetsmedizin.de/fhir/CodeSystem/ecrf-parameter-codes",
          "code": "steroids-gt"
        } ]
      },
      "subject": {
        "reference": "Patient/debc4b76df75a6a49a868d38d812ab4dcd2cf9c135339c35fa1ab482a467b948"
      },
      "effectiveDateTime": "2020-11-25T10:51:00+00:00"
    },
    "request": {
      "method": "POST",
      "url": "MedicationStatement",
      "ifNoneExist": "identifier=https://mein.krankenhaus.de/fhir/NamingSystem/medicationstatementId|378e61ad7102eca863047599cf80a91a6ead322369b5478dfe986fef0446ddc0"
    }
  }, {
    "fullUrl": "MedicationStatement/b61b760333af6cfb6f7e8a6c1548578dcd255b4911b37bf31609e02517f7fecc",
    "resource": {
      "resourceType": "MedicationStatement",
      "meta": {
        "profile": [ "https://www.netzwerk-universitaetsmedizin.de/fhir/StructureDefinition/pharmacological-therapy" ]
      },
      "identifier": [ {
        "system": "https://mein.krankenhaus.de/fhir/NamingSystem/medicationstatementId",
        "value": "f9a2b0f3a5c858dbbca5dab237b582241938b031faed40f9fa97af513eba03fb"
      } ],
      "status": "not-taken",
      "medicationCodeableConcept": {
        "coding": [ {
          "system": "https://www.netzwerk-universitaetsmedizin.de/fhir/CodeSystem/ecrf-parameter-codes",
          "code": "steroids-lt"
        } ]
      },
      "subject": {
        "reference": "Patient/debc4b76df75a6a49a868d38d812ab4dcd2cf9c135339c35fa1ab482a467b948"
      },
      "effectiveDateTime": "2020-11-25T10:51:00+00:00"
    },
    "request": {
      "method": "POST",
      "url": "MedicationStatement",
      "ifNoneExist": "identifier=https://mein.krankenhaus.de/fhir/NamingSystem/medicationstatementId|b61b760333af6cfb6f7e8a6c1548578dcd255b4911b37bf31609e02517f7fecc"
    }
  }, {
    "fullUrl": "MedicationStatement/1724021094ac99e61f1ad4268bed17dc494e73886a7070fbc900d9d91e508e75",
    "resource": {
      "resourceType": "MedicationStatement",
      "meta": {
        "profile": [ "https://www.netzwerk-universitaetsmedizin.de/fhir/StructureDefinition/pharmacological-therapy" ]
      },
      "identifier": [ {
        "system": "https://mein.krankenhaus.de/fhir/NamingSystem/medicationstatementId",
        "value": "686a6ccf080fcdf3181efa1f34e4109e1a0fe723e3fbbf8c8026bb19d2ad1a9d"
      } ],
      "status": "unknown",
      "medicationCodeableConcept": {
        "coding": [ {
          "system": "http://fhir.de/CodeSystem/dimdi/ops",
          "code": "6-005.m"
        }, {
          "system": "http://fhir.de/CodeSystem/dimdi/ops",
          "code": "6-005.n"
        }, {
          "system": "http://fhir.de/CodeSystem/dimdi/atc",
          "code": "L04AC07"
        }, {
          "system": "http://snomed.info/sct",
          "code": "444649004"
        } ]
      },
      "subject": {
        "reference": "Patient/debc4b76df75a6a49a868d38d812ab4dcd2cf9c135339c35fa1ab482a467b948"
      },
      "effectiveDateTime": "2020-11-25T10:51:00+00:00"
    },
    "request": {
      "method": "POST",
      "url": "MedicationStatement",
      "ifNoneExist": "identifier=https://mein.krankenhaus.de/fhir/NamingSystem/medicationstatementId|1724021094ac99e61f1ad4268bed17dc494e73886a7070fbc900d9d91e508e75"
    }
  }, {
    "fullUrl": "MedicationStatement/cb775691f68896a2b4abc343c2d768b909cf9b011b570ad8dcc802f4a5ccd854",
    "resource": {
      "resourceType": "MedicationStatement",
      "meta": {
        "profile": [ "https://www.netzwerk-universitaetsmedizin.de/fhir/StructureDefinition/pharmacological-therapy" ]
      },
      "identifier": [ {
        "system": "https://mein.krankenhaus.de/fhir/NamingSystem/medicationstatementId",
        "value": "1af34080f958a7761cbefb4e1d27e9357fe21c686c171ca6023f91ddf6c8fe4d"
      } ],
      "status": "active",
      "medicationCodeableConcept": {
        "coding": [ {
          "system": "http://fhir.de/CodeSystem/dimdi/ops",
          "code": "6-00a.g"
        }, {
          "system": "http://fhir.de/CodeSystem/dimdi/atc",
          "code": "L04AC14"
        }, {
          "system": "http://snomed.info/sct",
          "code": "763522001"
        } ]
      },
      "subject": {
        "reference": "Patient/debc4b76df75a6a49a868d38d812ab4dcd2cf9c135339c35fa1ab482a467b948"
      },
      "effectiveDateTime": "2020-11-25T10:51:00+00:00"
    },
    "request": {
      "method": "POST",
      "url": "MedicationStatement",
      "ifNoneExist": "identifier=https://mein.krankenhaus.de/fhir/NamingSystem/medicationstatementId|cb775691f68896a2b4abc343c2d768b909cf9b011b570ad8dcc802f4a5ccd854"
    }
  }, {
    "fullUrl": "MedicationStatement/be7ad30dc5ea21917d19d8e2bdb211c6ef2ca344b18cae9e2f557c70ea0bb863",
    "resource": {
      "resourceType": "MedicationStatement",
      "meta": {
        "profile": [ "https://www.netzwerk-universitaetsmedizin.de/fhir/StructureDefinition/pharmacological-therapy" ]
      },
      "identifier": [ {
        "system": "https://mein.krankenhaus.de/fhir/NamingSystem/medicationstatementId",
        "value": "82f3fcc937cd90dd0460f35063a25e0a69a806a2972e156179b8188114f18134"
      } ],
      "status": "not-taken",
      "medicationCodeableConcept": {
        "coding": [ {
          "system": "http://fhir.de/CodeSystem/dimdi/ops",
          "code": "6-005.8"
        }, {
          "system": "http://fhir.de/CodeSystem/dimdi/ops",
          "code": "6-004.e"
        }, {
          "system": "http://fhir.de/CodeSystem/dimdi/atc",
          "code": "L01XE10"
        }, {
          "system": "http://fhir.de/CodeSystem/dimdi/atc",
          "code": "S01XA18"
        }, {
          "system": "http://fhir.de/CodeSystem/dimdi/atc",
          "code": "L01XE18"
        }, {
          "system": "http://fhir.de/CodeSystem/dimdi/atc",
          "code": "L04AA18"
        }, {
          "system": "http://fhir.de/CodeSystem/dimdi/atc",
          "code": "L04AA10"
        }, {
          "system": "http://fhir.de/CodeSystem/dimdi/atc",
          "code": "D11AH01"
        }, {
          "system": "http://fhir.de/CodeSystem/dimdi/atc",
          "code": "L04AD"
        }, {
          "system": "http://fhir.de/CodeSystem/dimdi/atc",
          "code": "L04AB"
        }, {
          "system": "http://snomed.info/sct",
          "code": "416587008"
        } ]
      },
      "subject": {
        "reference": "Patient/debc4b76df75a6a49a868d38d812ab4dcd2cf9c135339c35fa1ab482a467b948"
      },
      "effectiveDateTime": "2020-11-25T10:51:00+00:00"
    },
    "request": {
      "method": "POST",
      "url": "MedicationStatement",
      "ifNoneExist": "identifier=https://mein.krankenhaus.de/fhir/NamingSystem/medicationstatementId|be7ad30dc5ea21917d19d8e2bdb211c6ef2ca344b18cae9e2f557c70ea0bb863"
    }
  }, {
    "fullUrl": "MedicationStatement/b9ae44ec4c588a538760d23b2c31d869e927034b5b605f8db236803f049aca85",
    "resource": {
      "resourceType": "MedicationStatement",
      "meta": {
        "profile": [ "https://www.netzwerk-universitaetsmedizin.de/fhir/StructureDefinition/pharmacological-therapy" ]
      },
      "identifier": [ {
        "system": "https://mein.krankenhaus.de/fhir/NamingSystem/medicationstatementId",
        "value": "fb3ddc234d86cbbab6a2cabd69a413a6ebeb3a9ffa1ea4c57e7b07747f3b3a88"
      } ],
      "status": "unknown",
      "medicationCodeableConcept": {
        "coding": [ {
          "system": "http://fhir.de/CodeSystem/dimdi/ops",
          "code": "6-001.d"
        }, {
          "system": "http://fhir.de/CodeSystem/dimdi/ops",
          "code": "6-002.b"
        }, {
          "system": "http://fhir.de/CodeSystem/dimdi/ops",
          "code": "6-005.7"
        }, {
          "system": "http://fhir.de/CodeSystem/dimdi/ops",
          "code": "6-005.2"
        }, {
          "system": "http://fhir.de/CodeSystem/dimdi/ops",
          "code": "6-001.e"
        }, {
          "system": "http://snomed.info/sct",
          "code": "416897008"
        } ]
      },
      "subject": {
        "reference": "Patient/debc4b76df75a6a49a868d38d812ab4dcd2cf9c135339c35fa1ab482a467b948"
      },
      "effectiveDateTime": "2020-11-25T10:51:00+00:00"
    },
    "request": {
      "method": "POST",
      "url": "MedicationStatement",
      "ifNoneExist": "identifier=https://mein.krankenhaus.de/fhir/NamingSystem/medicationstatementId|b9ae44ec4c588a538760d23b2c31d869e927034b5b605f8db236803f049aca85"
    }
  }, {
    "fullUrl": "MedicationStatement/3bf170b8deb9a49fd5df03b24340b620330d5e55f471a8d9bea6aed3c16677fd",
    "resource": {
      "resourceType": "MedicationStatement",
      "meta": {
        "profile": [ "https://www.netzwerk-universitaetsmedizin.de/fhir/StructureDefinition/pharmacological-therapy" ]
      },
      "identifier": [ {
        "system": "https://mein.krankenhaus.de/fhir/NamingSystem/medicationstatementId",
        "value": "a019dc031a07ff3e47898788fb2affa6910df7b26f83dd465a964164f391329e"
      } ],
      "status": "unknown",
      "medicationCodeableConcept": {
        "coding": [ {
          "system": "http://fhir.de/CodeSystem/dimdi/ops",
          "code": "6-006.7"
        }, {
          "system": "http://fhir.de/CodeSystem/dimdi/atc",
          "code": "L04AC"
        }, {
          "system": "http://snomed.info/sct",
          "code": "430817009"
        } ]
      },
      "subject": {
        "reference": "Patient/debc4b76df75a6a49a868d38d812ab4dcd2cf9c135339c35fa1ab482a467b948"
      },
      "effectiveDateTime": "2020-11-25T10:51:00+00:00"
    },
    "request": {
      "method": "POST",
      "url": "MedicationStatement",
      "ifNoneExist": "identifier=https://mein.krankenhaus.de/fhir/NamingSystem/medicationstatementId|3bf170b8deb9a49fd5df03b24340b620330d5e55f471a8d9bea6aed3c16677fd"
    }
  }, {
    "fullUrl": "MedicationStatement/927fa66e1ff18572a6496f209a208387d4612c609eafaeea57f0417b69a45560",
    "resource": {
      "resourceType": "MedicationStatement",
      "meta": {
        "profile": [ "https://www.netzwerk-universitaetsmedizin.de/fhir/StructureDefinition/pharmacological-therapy" ]
      },
      "identifier": [ {
        "system": "https://mein.krankenhaus.de/fhir/NamingSystem/medicationstatementId",
        "value": "6b3be18728b8e1e4446a032bda3df6979f7ed854e5de5cd8f513eef3cd289a52"
      } ],
      "status": "active",
      "medicationCodeableConcept": {
        "coding": [ {
          "system": "http://fhir.de/CodeSystem/dimdi/ops",
          "code": "6-009.4"
        }, {
          "system": "http://snomed.info/sct",
          "code": "703779004"
        } ]
      },
      "subject": {
        "reference": "Patient/debc4b76df75a6a49a868d38d812ab4dcd2cf9c135339c35fa1ab482a467b948"
      },
      "effectiveDateTime": "2020-11-25T10:51:00+00:00"
    },
    "request": {
      "method": "POST",
      "url": "MedicationStatement",
      "ifNoneExist": "identifier=https://mein.krankenhaus.de/fhir/NamingSystem/medicationstatementId|927fa66e1ff18572a6496f209a208387d4612c609eafaeea57f0417b69a45560"
    }
  }, {
    "fullUrl": "MedicationStatement/4302a3d52fe7b89ebc5b71f6f8e7c3ad9ef62a8c3e21ff94138ffc6462c24f73",
    "resource": {
      "resourceType": "MedicationStatement",
      "meta": {
        "profile": [ "https://www.netzwerk-universitaetsmedizin.de/fhir/StructureDefinition/pharmacological-therapy" ]
      },
      "identifier": [ {
        "system": "https://mein.krankenhaus.de/fhir/NamingSystem/medicationstatementId",
        "value": "b485411b6b7c8fc22d5b26031655748386432a81b4d306027763d45ddf798df6"
      } ],
      "status": "not-taken",
      "medicationCodeableConcept": {
        "coding": [ {
          "system": "http://fhir.de/CodeSystem/dimdi/atc",
          "code": "M04AC01"
        }, {
          "system": "http://snomed.info/sct",
          "code": "73133000"
        } ]
      },
      "subject": {
        "reference": "Patient/debc4b76df75a6a49a868d38d812ab4dcd2cf9c135339c35fa1ab482a467b948"
      },
      "effectiveDateTime": "2020-11-25T10:51:00+00:00"
    },
    "request": {
      "method": "POST",
      "url": "MedicationStatement",
      "ifNoneExist": "identifier=https://mein.krankenhaus.de/fhir/NamingSystem/medicationstatementId|4302a3d52fe7b89ebc5b71f6f8e7c3ad9ef62a8c3e21ff94138ffc6462c24f73"
    }
  }, {
    "fullUrl": "MedicationStatement/866cfcf28a0ebddbe5ebcda6cc2134894cde7dbc39296ff669354068b704a71e",
    "resource": {
      "resourceType": "MedicationStatement",
      "meta": {
        "profile": [ "https://www.netzwerk-universitaetsmedizin.de/fhir/StructureDefinition/pharmacological-therapy" ]
      },
      "identifier": [ {
        "system": "https://mein.krankenhaus.de/fhir/NamingSystem/medicationstatementId",
        "value": "5ad58013b8ffcc700c4330d285e040e960c6d011acb328c8fe85c792d536af37"
      } ],
      "status": "active",
      "medicationCodeableConcept": {
        "coding": [ {
          "system": "http://fhir.de/CodeSystem/dimdi/atc",
          "code": "S01AD05"
        }, {
          "system": "http://snomed.info/sct",
          "code": "768865007"
        } ]
      },
      "subject": {
        "reference": "Patient/debc4b76df75a6a49a868d38d812ab4dcd2cf9c135339c35fa1ab482a467b948"
      },
      "effectiveDateTime": "2020-11-25T10:51:00+00:00"
    },
    "request": {
      "method": "POST",
      "url": "MedicationStatement",
      "ifNoneExist": "identifier=https://mein.krankenhaus.de/fhir/NamingSystem/medicationstatementId|866cfcf28a0ebddbe5ebcda6cc2134894cde7dbc39296ff669354068b704a71e"
    }
  }, {
    "fullUrl": "MedicationStatement/6be6920a4581899029070b5a20dcdea6bfaf0630203a06901dbb1814ba160679",
    "resource": {
      "resourceType": "MedicationStatement",
      "meta": {
        "profile": [ "https://www.netzwerk-universitaetsmedizin.de/fhir/StructureDefinition/pharmacological-therapy" ]
      },
      "identifier": [ {
        "system": "https://mein.krankenhaus.de/fhir/NamingSystem/medicationstatementId",
        "value": "c90a4b4fc7a3783a19dd077ff017ca024d189c7c3cb851be03305322cdb6a3e8"
      } ],
      "status": "not-taken",
      "medicationCodeableConcept": {
        "coding": [ {
          "system": "http://fhir.de/CodeSystem/dimdi/atc",
          "code": "A11CC06"
        }, {
          "system": "http://snomed.info/sct",
          "code": "88519001"
        } ]
      },
      "subject": {
        "reference": "Patient/debc4b76df75a6a49a868d38d812ab4dcd2cf9c135339c35fa1ab482a467b948"
      },
      "effectiveDateTime": "2020-11-25T10:51:00+00:00"
    },
    "request": {
      "method": "POST",
      "url": "MedicationStatement",
      "ifNoneExist": "identifier=https://mein.krankenhaus.de/fhir/NamingSystem/medicationstatementId|6be6920a4581899029070b5a20dcdea6bfaf0630203a06901dbb1814ba160679"
    }
  }, {
    "fullUrl": "MedicationStatement/0e5d1fa0e43bbe3fd908d816c214abe555eae63f385bc96db1c00802796ae1ab",
    "resource": {
      "resourceType": "MedicationStatement",
      "meta": {
        "profile": [ "https://www.netzwerk-universitaetsmedizin.de/fhir/StructureDefinition/pharmacological-therapy" ]
      },
      "identifier": [ {
        "system": "https://mein.krankenhaus.de/fhir/NamingSystem/medicationstatementId",
        "value": "dd3a73f886b6f3711b1d97be958b2774fcdd9d71250f054383099c42cca10526"
      } ],
      "status": "unknown",
      "medicationCodeableConcept": {
        "coding": [ {
          "system": "http://fhir.de/CodeSystem/dimdi/atc",
          "code": "A12CB"
        }, {
          "system": "http://snomed.info/sct",
          "code": "764877006"
        } ]
      },
      "subject": {
        "reference": "Patient/debc4b76df75a6a49a868d38d812ab4dcd2cf9c135339c35fa1ab482a467b948"
      },
      "effectiveDateTime": "2020-11-25T10:51:00+00:00"
    },
    "request": {
      "method": "POST",
      "url": "MedicationStatement",
      "ifNoneExist": "identifier=https://mein.krankenhaus.de/fhir/NamingSystem/medicationstatementId|0e5d1fa0e43bbe3fd908d816c214abe555eae63f385bc96db1c00802796ae1ab"
    }
  }, {
    "fullUrl": "MedicationStatement/31799207b45ee9c549aafceeb95fbe9949c655a15f8170a7749bce58a95338d3",
    "resource": {
      "resourceType": "MedicationStatement",
      "meta": {
        "profile": [ "https://www.netzwerk-universitaetsmedizin.de/fhir/StructureDefinition/pharmacological-therapy" ]
      },
      "identifier": [ {
        "system": "https://mein.krankenhaus.de/fhir/NamingSystem/medicationstatementId",
        "value": "f7cab340a96193a3247fcb98d0cc989fcb32aad1c5f0f5c3f7f621af247a06be"
      } ],
      "status": "stopped",
      "medicationCodeableConcept": {
        "coding": [ {
          "system": "http://snomed.info/sct",
          "code": "41549009"
        } ],
        "text": "ACE inhibitors"
      },
      "subject": {
        "reference": "Patient/debc4b76df75a6a49a868d38d812ab4dcd2cf9c135339c35fa1ab482a467b948"
      },
      "effectiveDateTime": "2020-11-25T10:51:00+00:00"
    },
    "request": {
      "method": "POST",
      "url": "MedicationStatement",
      "ifNoneExist": "identifier=https://mein.krankenhaus.de/fhir/NamingSystem/medicationstatementId|31799207b45ee9c549aafceeb95fbe9949c655a15f8170a7749bce58a95338d3"
    }
  }, {
    "fullUrl": "Observation/73eaf2f5c6d25a58d3cdc08e9a8155ba8255220e0011888bd4dc4b1d746bdee3",
    "resource": {
      "resourceType": "Observation",
      "meta": {
        "profile": [ "https://www.netzwerk-universitaetsmedizin.de/fhir/StructureDefinition/study-inclusion-covid-19" ]
      },
      "identifier": [ {
        "type": {
          "coding": [ {
            "system": "http://terminology.hl7.org/CodeSystem/v2-0203",
            "code": "OBI",
            "display": "Observation Instance Identifier"
          } ]
        },
        "system": "https://mein.krankenhaus.de/fhir/NamingSystem/observationId",
        "value": "b8182bed271c4ca66ca25ecbccfdf6bb246d44b7de3a9974a4c9bba72d7ea59b",
        "assigner": {
          "reference": "Organization/3a4f3433bce81181bad2d8e0b8fafccf7dc800bc06f29be73dcb38b750a48f9a"
        }
      } ],
      "status": "final",
      "category": [ {
        "coding": [ {
          "system": "http://terminology.hl7.org/CodeSystem/observation-category",
          "code": "survey",
          "display": "Survey"
        } ]
      } ],
      "code": {
        "coding": [ {
          "system": "https://www.netzwerk-universitaetsmedizin.de/fhir/CodeSystem/ecrf-parameter-codes",
          "code": "02",
          "display": "Study inclusion due to Covid-19"
        } ],
        "text": "Confirmed Covid-19 diagnosis as main reason for enrolment in the study"
      },
      "subject": {
        "reference": "Patient/debc4b76df75a6a49a868d38d812ab4dcd2cf9c135339c35fa1ab482a467b948"
      },
      "_effectiveDateTime": {
        "extension": [ {
          "url": "http://hl7.org/fhir/StructureDefinition/data-absent-reason",
          "valueCode": "unknown"
        } ]
      },
      "valueCodeableConcept": {
        "coding": [ {
          "system": "http://snomed.info/sct",
          "code": "373066001"
        } ]
      }
    },
    "request": {
      "method": "POST",
      "url": "Observation",
      "ifNoneExist": "identifier=https://mein.krankenhaus.de/fhir/NamingSystem/observationId|73eaf2f5c6d25a58d3cdc08e9a8155ba8255220e0011888bd4dc4b1d746bdee3"
    }
  }, {
    "fullUrl": "Observation/9979342aafbef76ab30421f715ec0958a85fb20d0b8cfe2c35af9b1817456b28",
    "resource": {
      "resourceType": "Observation",
      "meta": {
        "profile": [ "https://www.netzwerk-universitaetsmedizin.de/fhir/StructureDefinition/interventional-clinical-trial-participation" ]
      },
      "identifier": [ {
        "type": {
          "coding": [ {
            "system": "http://terminology.hl7.org/CodeSystem/v2-0203",
            "code": "OBI",
            "display": "Observation Instance Identifier"
          } ]
        },
        "system": "https://mein.krankenhaus.de/fhir/NamingSystem/observationId",
        "value": "aaf7b9936655e1cfa363ade1ee53e964136b4109855120003e178d4d59a553ac",
        "assigner": {
          "reference": "Organization/3a4f3433bce81181bad2d8e0b8fafccf7dc800bc06f29be73dcb38b750a48f9a"
        }
      } ],
      "status": "final",
      "category": [ {
        "coding": [ {
          "system": "http://terminology.hl7.org/CodeSystem/observation-category",
          "code": "survey",
          "display": "Survey"
        } ]
      } ],
      "code": {
        "coding": [ {
          "system": "https://www.netzwerk-universitaetsmedizin.de/fhir/CodeSystem/ecrf-parameter-codes",
          "code": "03",
          "display": "Participation in interventional clinical trials"
        } ],
        "text": "Has the patient participated in one or more interventional clinical trials?"
      },
      "subject": {
        "reference": "Patient/debc4b76df75a6a49a868d38d812ab4dcd2cf9c135339c35fa1ab482a467b948"
      },
      "_effectiveDateTime": {
        "extension": [ {
          "url": "http://hl7.org/fhir/StructureDefinition/data-absent-reason",
          "valueCode": "unknown"
        } ]
      },
      "valueCodeableConcept": {
        "coding": [ {
          "system": "http://snomed.info/sct",
          "code": "373067005"
        } ]
      }
    },
    "request": {
      "method": "POST",
      "url": "Observation",
      "ifNoneExist": "identifier=https://mein.krankenhaus.de/fhir/NamingSystem/observationId|9979342aafbef76ab30421f715ec0958a85fb20d0b8cfe2c35af9b1817456b28"
    }
  } ]
}