{
  "resourceType": "Bundle",
  "meta": {
    "profile": [ "https://www.netzwerk-universitaetsmedizin.de/fhir/StructureDefinition/gecco-bundle" ]
  },
  "type": "transaction",
  "entry": [ {
    "fullUrl": "Patient/51ad521ffefaa7f5e58cc4e58b89c4998404f7c6201609a2881d9c483bfeca68",
    "resource": {
      "resourceType": "Patient",
      "meta": {
        "profile": [ "https://www.netzwerk-universitaetsmedizin.de/fhir/StructureDefinition/Patient" ]
      },
      "extension": [ {
        "url": "https://www.netzwerk-universitaetsmedizin.de/fhir/StructureDefinition/age",
        "extension": [ {
          "url": "dateTimeOfDocumentation",
          "_valueDateTime": {
            "extension": [ {
              "url": "http://hl7.org/fhir/StructureDefinition/data-absent-reason",
              "valueCode": "unknown"
            } ]
          }
        }, {
          "url": "age",
          "valueAge": {
            "value": 20,
            "unit": "years",
            "system": "http://unitsofmeasure.org",
            "code": "a"
          }
        } ]
      }, {
        "url": "https://www.netzwerk-universitaetsmedizin.de/fhir/StructureDefinition/ethnic-group",
        "valueCoding": {
          "system": "http://snomed.info/sct",
          "code": "14045001"
        }
      } ],
      "identifier": [ {
        "type": {
          "coding": [ {
            "system": "http://terminology.hl7.org/CodeSystem/v2-0203",
            "code": "MR"
          } ]
        },
        "system": "https://mein.krankenhaus.de/fhir/NamingSystem/patientId",
        "value": "synthetic_patient_044256254",
        "assigner": {
          "reference": "Organization/3a4f3433bce81181bad2d8e0b8fafccf7dc800bc06f29be73dcb38b750a48f9a"
        }
      } ],
      "birthDate": "2001-03-12"
    },
    "request": {
      "method": "POST",
      "url": "Patient",
      "ifNoneExist": "identifier=https://mein.krankenhaus.de/fhir/NamingSystem/patientId|51ad521ffefaa7f5e58cc4e58b89c4998404f7c6201609a2881d9c483bfeca68"
    }
  }, {
    "fullUrl": "Organization/3a4f3433bce81181bad2d8e0b8fafccf7dc800bc06f29be73dcb38b750a48f9a",
    "resource": {
      "resourceType": "Organization",
      "name": "Mein Krankenhaus"
    },
    "request": {
      "method": "POST",
      "url": "Organization",
      "ifNoneExist": "identifier=null|3a4f3433bce81181bad2d8e0b8fafccf7dc800bc06f29be73dcb38b750a48f9a"
    }
  }, {
    "fullUrl": "Encounter/d4f3f361f77cd1a463c3ca6e9d61f589a3822a1e2a1ac2f7b65fe98e5cd351fa",
    "resource": {
      "resourceType": "Encounter",
      "identifier": [ {
        "system": "https://mein.krankenhaus.de/fhir/NamingSystem/encounterId",
        "value": "d44b27d604ea389f93f0175d1fc4544ef5d70f60c211c4ad872f53ba20b86a8b",
        "assigner": {
          "reference": "Organization/3a4f3433bce81181bad2d8e0b8fafccf7dc800bc06f29be73dcb38b750a48f9a"
        }
      } ],
      "status": "unknown",
      "class": {
        "system": "http://terminology.hl7.org/CodeSystem/v3-ActCode",
        "code": "IMP",
        "display": "inpatient encounter"
      },
      "subject": {
        "reference": "Patient/51ad521ffefaa7f5e58cc4e58b89c4998404f7c6201609a2881d9c483bfeca68"
      }
    },
    "request": {
      "method": "POST",
      "url": "Encounter",
      "ifNoneExist": "identifier=https://mein.krankenhaus.de/fhir/NamingSystem/encounterId|d4f3f361f77cd1a463c3ca6e9d61f589a3822a1e2a1ac2f7b65fe98e5cd351fa"
    }
  }, {
    "fullUrl": "Condition/b833dfbe99528293aa5001744967a17b9c13258382aec30e3c91967727a9b2d6",
    "resource": {
      "resourceType": "Condition",
      "meta": {
        "profile": [ "https://www.netzwerk-universitaetsmedizin.de/fhir/StructureDefinition/diagnosis-covid-19" ]
      },
      "identifier": [ {
        "system": "https://mein.krankenhaus.de/fhir/NamingSystem/conditionId",
        "value": "fe1e3d3f3ad4e07da16faf7cd8d354208b42fb9db13bce5635dbc68e54d60b81"
      } ],
      "clinicalStatus": {
        "coding": [ {
          "system": "http://terminology.hl7.org/CodeSystem/condition-clinical",
          "code": "active",
          "display": "Active"
        } ]
      },
      "verificationStatus": {
        "coding": [ {
          "system": "http://terminology.hl7.org/CodeSystem/condition-ver-status",
          "code": "confirmed",
          "display": "Confirmed"
        }, {
          "system": "http://snomed.info/sct",
          "code": "410605003",
          "display": "Confirmed present (qualifier value)"
        } ]
      },
      "category": [ {
        "coding": [ {
          "system": "http://snomed.info/sct",
          "code": "394807007",
          "display": "Infectious diseases (specialty) (qualifier value)"
        } ]
      } ],
      "code": {
        "coding": [ {
          "system": "http://snomed.info/sct",
          "code": "840539006",
          "display": "Disease caused by Severe acute respiratory syndrome coronavirus 2 (disorder)"
        } ]
      },
      "subject": {
        "reference": "Patient/51ad521ffefaa7f5e58cc4e58b89c4998404f7c6201609a2881d9c483bfeca68"
      },
      "encounter": {
        "reference": "Encounter/d4f3f361f77cd1a463c3ca6e9d61f589a3822a1e2a1ac2f7b65fe98e5cd351fa"
      },
      "_recordedDate": {
        "extension": [ {
          "url": "http://hl7.org/fhir/StructureDefinition/data-absent-reason",
          "valueCode": "unknown"
        } ]
      },
      "stage": [ {
        "summary": {
          "coding": [ {
            "system": "http://snomed.info/sct",
            "code": "399166001"
          } ]
        },
        "type": {
          "coding": [ {
            "system": "http://loinc.org",
            "code": "88859-4"
          } ]
        }
      } ]
    },
    "request": {
      "method": "POST",
      "url": "Condition",
      "ifNoneExist": "identifier=https://mein.krankenhaus.de/fhir/NamingSystem/conditionId|b833dfbe99528293aa5001744967a17b9c13258382aec30e3c91967727a9b2d6"
    }
  }, {
    "fullUrl": "Condition/4be8c920fc01cc94fbd727b812db9d8cdab6c3206fbe049ff8c78b3c45419813",
    "resource": {
      "resourceType": "Condition",
      "meta": {
        "profile": [ "https://www.netzwerk-universitaetsmedizin.de/fhir/StructureDefinition/chronic-liver-diseases" ]
      },
      "modifierExtension": [ {
        "url": "https://www.netzwerk-universitaetsmedizin.de/fhir/StructureDefinition/uncertainty-of-presence",
        "valueCodeableConcept": {
          "coding": [ {
            "system": "http://snomed.info/sct",
            "code": "261665006",
            "display": "Unknown (qualifier value)"
          } ],
          "text": "Presence unknown."
        }
      } ],
      "identifier": [ {
        "system": "https://mein.krankenhaus.de/fhir/NamingSystem/conditionId",
        "value": "7c8d993a5d2bbfcc7289566bfd26dbce4070ecf52776eeb7435dbf1e61d4950a"
      } ],
      "category": [ {
        "coding": [ {
          "system": "http://snomed.info/sct",
          "code": "408472002",
          "display": "Hepatology (qualifier value)"
        } ]
      } ],
      "code": {
        "coding": [ {
          "system": "http://fhir.de/CodeSystem/dimdi/icd-10-gm",
          "version": "2021",
          "code": "K76.0"
        }, {
          "system": "http://snomed.info/sct",
          "code": "197321007"
        } ]
      },
      "subject": {
        "reference": "Patient/51ad521ffefaa7f5e58cc4e58b89c4998404f7c6201609a2881d9c483bfeca68"
      },
      "encounter": {
        "reference": "Encounter/d4f3f361f77cd1a463c3ca6e9d61f589a3822a1e2a1ac2f7b65fe98e5cd351fa"
      },
      "_recordedDate": {
        "extension": [ {
          "url": "http://hl7.org/fhir/StructureDefinition/data-absent-reason",
          "valueCode": "unknown"
        } ]
      }
    },
    "request": {
      "method": "POST",
      "url": "Condition",
      "ifNoneExist": "identifier=https://mein.krankenhaus.de/fhir/NamingSystem/conditionId|4be8c920fc01cc94fbd727b812db9d8cdab6c3206fbe049ff8c78b3c45419813"
    }
  }, {
    "fullUrl": "Condition/692666e2d3e958cd6461972e1f3b8f88b93c4c6af99e6e45fe0d70dfb940663e",
    "resource": {
      "resourceType": "Condition",
      "meta": {
        "profile": [ "https://www.netzwerk-universitaetsmedizin.de/fhir/StructureDefinition/chronic-liver-diseases" ]
      },
      "identifier": [ {
        "system": "https://mein.krankenhaus.de/fhir/NamingSystem/conditionId",
        "value": "4bd83bb10ae0eb7be92b598b8702ea020abdc44a87e2528b8f945f427aa08b2b"
      } ],
      "verificationStatus": {
        "coding": [ {
          "system": "http://terminology.hl7.org/CodeSystem/condition-ver-status",
          "code": "refuted",
          "display": "Refuted"
        }, {
          "system": "http://snomed.info/sct",
          "code": "410594000",
          "display": "Definitely NOT present (qualifier value)"
        } ]
      },
      "category": [ {
        "coding": [ {
          "system": "http://snomed.info/sct",
          "code": "408472002",
          "display": "Hepatology (qualifier value)"
        } ]
      } ],
      "code": {
        "coding": [ {
          "system": "http://fhir.de/CodeSystem/dimdi/icd-10-gm",
          "version": "2021",
          "code": "K74.6"
        }, {
          "system": "http://snomed.info/sct",
          "code": "19943007"
        } ]
      },
      "subject": {
        "reference": "Patient/51ad521ffefaa7f5e58cc4e58b89c4998404f7c6201609a2881d9c483bfeca68"
      },
      "encounter": {
        "reference": "Encounter/d4f3f361f77cd1a463c3ca6e9d61f589a3822a1e2a1ac2f7b65fe98e5cd351fa"
      },
      "_recordedDate": {
        "extension": [ {
          "url": "http://hl7.org/fhir/StructureDefinition/data-absent-reason",
          "valueCode": "unknown"
        } ]
      }
    },
    "request": {
      "method": "POST",
      "url": "Condition",
      "ifNoneExist": "identifier=https://mein.krankenhaus.de/fhir/NamingSystem/conditionId|692666e2d3e958cd6461972e1f3b8f88b93c4c6af99e6e45fe0d70dfb940663e"
    }
  }, {
    "fullUrl": "Condition/ef087118389b72639e5f71a3e0c11014d37aba81f306496603682247f2240878",
    "resource": {
      "resourceType": "Condition",
      "meta": {
        "profile": [ "https://www.netzwerk-universitaetsmedizin.de/fhir/StructureDefinition/chronic-liver-diseases" ]
      },
      "modifierExtension": [ {
        "url": "https://www.netzwerk-universitaetsmedizin.de/fhir/StructureDefinition/uncertainty-of-presence",
        "valueCodeableConcept": {
          "coding": [ {
            "system": "http://snomed.info/sct",
            "code": "261665006",
            "display": "Unknown (qualifier value)"
          } ],
          "text": "Presence unknown."
        }
      } ],
      "identifier": [ {
        "system": "https://mein.krankenhaus.de/fhir/NamingSystem/conditionId",
        "value": "c8e4a7a6336e6cf7e6e8a55aebbee8cc38a5e860c0ccb2c9d5e9b85d48591d10"
      } ],
      "category": [ {
        "coding": [ {
          "system": "http://snomed.info/sct",
          "code": "408472002",
          "display": "Hepatology (qualifier value)"
        } ]
      } ],
      "code": {
        "coding": [ {
          "system": "http://fhir.de/CodeSystem/dimdi/icd-10-gm",
          "version": "2021",
          "code": "B18.9"
        }, {
          "system": "http://snomed.info/sct",
          "code": "10295004"
        } ]
      },
      "subject": {
        "reference": "Patient/51ad521ffefaa7f5e58cc4e58b89c4998404f7c6201609a2881d9c483bfeca68"
      },
      "encounter": {
        "reference": "Encounter/d4f3f361f77cd1a463c3ca6e9d61f589a3822a1e2a1ac2f7b65fe98e5cd351fa"
      },
      "_recordedDate": {
        "extension": [ {
          "url": "http://hl7.org/fhir/StructureDefinition/data-absent-reason",
          "valueCode": "unknown"
        } ]
      }
    },
    "request": {
      "method": "POST",
      "url": "Condition",
      "ifNoneExist": "identifier=https://mein.krankenhaus.de/fhir/NamingSystem/conditionId|ef087118389b72639e5f71a3e0c11014d37aba81f306496603682247f2240878"
    }
  }, {
    "fullUrl": "Condition/f9c4a8dab91349f036d060a99e8b69fadaff070989c35644c9e910a03bf535fc",
    "resource": {
      "resourceType": "Condition",
      "meta": {
        "profile": [ "https://www.netzwerk-universitaetsmedizin.de/fhir/StructureDefinition/chronic-liver-diseases" ]
      },
      "modifierExtension": [ {
        "url": "https://www.netzwerk-universitaetsmedizin.de/fhir/StructureDefinition/uncertainty-of-presence",
        "valueCodeableConcept": {
          "coding": [ {
            "system": "http://snomed.info/sct",
            "code": "261665006",
            "display": "Unknown (qualifier value)"
          } ],
          "text": "Presence unknown."
        }
      } ],
      "identifier": [ {
        "system": "https://mein.krankenhaus.de/fhir/NamingSystem/conditionId",
        "value": "8fa610b94936bd2b04bb3a56c4a96ec53870b46f9b5ef822523db4f6dc2ef8db"
      } ],
      "category": [ {
        "coding": [ {
          "system": "http://snomed.info/sct",
          "code": "408472002",
          "display": "Hepatology (qualifier value)"
        } ]
      } ],
      "code": {
        "coding": [ {
          "system": "http://snomed.info/sct",
          "code": "235890007"
        } ]
      },
      "subject": {
        "reference": "Patient/51ad521ffefaa7f5e58cc4e58b89c4998404f7c6201609a2881d9c483bfeca68"
      },
      "encounter": {
        "reference": "Encounter/d4f3f361f77cd1a463c3ca6e9d61f589a3822a1e2a1ac2f7b65fe98e5cd351fa"
      },
      "_recordedDate": {
        "extension": [ {
          "url": "http://hl7.org/fhir/StructureDefinition/data-absent-reason",
          "valueCode": "unknown"
        } ]
      }
    },
    "request": {
      "method": "POST",
      "url": "Condition",
      "ifNoneExist": "identifier=https://mein.krankenhaus.de/fhir/NamingSystem/conditionId|f9c4a8dab91349f036d060a99e8b69fadaff070989c35644c9e910a03bf535fc"
    }
  }, {
    "fullUrl": "Condition/6018d9fe2e5cabc5ccfdebe61948e9d9e34e57fb0814834bdd0af9e6f596fb3f",
    "resource": {
      "resourceType": "Condition",
      "meta": {
        "profile": [ "https://www.netzwerk-universitaetsmedizin.de/fhir/StructureDefinition/chronic-liver-diseases" ]
      },
      "identifier": [ {
        "system": "https://mein.krankenhaus.de/fhir/NamingSystem/conditionId",
        "value": "01c29aac2ce9075f061da259577a8d0e905e847153c03f1ab0b5f6997291e307"
      } ],
      "clinicalStatus": {
        "coding": [ {
          "system": "http://terminology.hl7.org/CodeSystem/condition-clinical",
          "code": "active",
          "display": "Active"
        } ]
      },
      "verificationStatus": {
        "coding": [ {
          "system": "http://terminology.hl7.org/CodeSystem/condition-ver-status",
          "code": "confirmed",
          "display": "Confirmed"
        }, {
          "system": "http://snomed.info/sct",
          "code": "410605003",
          "display": "Confirmed present (qualifier value)"
        } ]
      },
      "category": [ {
        "coding": [ {
          "system": "http://snomed.info/sct",
          "code": "408472002",
          "display": "Hepatology (qualifier value)"
        } ]
      } ],
      "code": {
        "coding": [ {
          "system": "http://fhir.de/CodeSystem/dimdi/icd-10-gm",
          "version": "2021",
          "code": "K76.9"
        }, {
          "system": "http://snomed.info/sct",
          "code": "328383001"
        } ]
      },
      "subject": {
        "reference": "Patient/51ad521ffefaa7f5e58cc4e58b89c4998404f7c6201609a2881d9c483bfeca68"
      },
      "encounter": {
        "reference": "Encounter/d4f3f361f77cd1a463c3ca6e9d61f589a3822a1e2a1ac2f7b65fe98e5cd351fa"
      },
      "_recordedDate": {
        "extension": [ {
          "url": "http://hl7.org/fhir/StructureDefinition/data-absent-reason",
          "valueCode": "unknown"
        } ]
      }
    },
    "request": {
      "method": "POST",
      "url": "Condition",
      "ifNoneExist": "identifier=https://mein.krankenhaus.de/fhir/NamingSystem/conditionId|6018d9fe2e5cabc5ccfdebe61948e9d9e34e57fb0814834bdd0af9e6f596fb3f"
    }
  }, {
    "fullUrl": "Condition/f27e0369d7ee441712f8465619e5378b4bc6486fb44d501b7749489574570b88",
    "resource": {
      "resourceType": "Condition",
      "meta": {
        "profile": [ "https://www.netzwerk-universitaetsmedizin.de/fhir/StructureDefinition/human-immunodeficiency-virus-infection" ]
      },
      "identifier": [ {
        "system": "https://mein.krankenhaus.de/fhir/NamingSystem/conditionId",
        "value": "1e1ba863895656a216c5860a767d6ccd7ddc93cb384f56c5b81b1634a1e27859"
      } ],
      "clinicalStatus": {
        "coding": [ {
          "system": "http://terminology.hl7.org/CodeSystem/condition-clinical",
          "code": "active",
          "display": "Active"
        } ]
      },
      "verificationStatus": {
        "coding": [ {
          "system": "http://terminology.hl7.org/CodeSystem/condition-ver-status",
          "code": "confirmed",
          "display": "Confirmed"
        }, {
          "system": "http://snomed.info/sct",
          "code": "410605003",
          "display": "Confirmed present (qualifier value)"
        } ]
      },
      "category": [ {
        "coding": [ {
          "system": "http://snomed.info/sct",
          "code": "394807007",
          "display": "Infectious diseases (specialty) (qualifier value)"
        } ]
      } ],
      "code": {
        "coding": [ {
          "system": "http://fhir.de/CodeSystem/dimdi/icd-10-gm",
          "version": "2021",
          "code": "B24"
        }, {
          "system": "http://snomed.info/sct",
          "code": "86406008"
        } ]
      },
      "subject": {
        "reference": "Patient/51ad521ffefaa7f5e58cc4e58b89c4998404f7c6201609a2881d9c483bfeca68"
      },
      "encounter": {
        "reference": "Encounter/d4f3f361f77cd1a463c3ca6e9d61f589a3822a1e2a1ac2f7b65fe98e5cd351fa"
      },
      "_recordedDate": {
        "extension": [ {
          "url": "http://hl7.org/fhir/StructureDefinition/data-absent-reason",
          "valueCode": "unknown"
        } ]
      }
    },
    "request": {
      "method": "POST",
      "url": "Condition",
      "ifNoneExist": "identifier=https://mein.krankenhaus.de/fhir/NamingSystem/conditionId|f27e0369d7ee441712f8465619e5378b4bc6486fb44d501b7749489574570b88"
    }
  }, {
    "fullUrl": "Condition/417ec3350d482661f15290c617f7f09aebd6b11034bc7399d06d254f6d2573ec",
    "resource": {
      "resourceType": "Condition",
      "meta": {
        "profile": [ "https://www.netzwerk-universitaetsmedizin.de/fhir/StructureDefinition/diabetes-mellitus" ]
      },
      "identifier": [ {
        "system": "https://mein.krankenhaus.de/fhir/NamingSystem/conditionId",
        "value": "f794b2e543f2c1c2f6da252eec6fc2117d77a239b8cfd61af89be97066acf0ef"
      } ],
      "verificationStatus": {
        "coding": [ {
          "system": "http://terminology.hl7.org/CodeSystem/condition-ver-status",
          "code": "confirmed",
          "display": "Confirmed"
        }, {
          "system": "http://snomed.info/sct",
          "code": "410605003",
          "display": "Confirmed present (qualifier value)"
        } ]
      },
      "category": [ {
        "coding": [ {
          "system": "http://snomed.info/sct",
          "code": "408475000",
          "display": "Diabetic medicine (qualifier value)"
        } ]
      } ],
      "code": {
        "coding": [ {
          "system": "http://fhir.de/CodeSystem/dimdi/icd-10-gm",
          "version": "2021",
          "code": "E13.9"
        }, {
          "system": "http://snomed.info/sct",
          "code": "8801005"
        } ]
      },
      "subject": {
        "reference": "Patient/51ad521ffefaa7f5e58cc4e58b89c4998404f7c6201609a2881d9c483bfeca68"
      },
      "encounter": {
        "reference": "Encounter/d4f3f361f77cd1a463c3ca6e9d61f589a3822a1e2a1ac2f7b65fe98e5cd351fa"
      },
      "_recordedDate": {
        "extension": [ {
          "url": "http://hl7.org/fhir/StructureDefinition/data-absent-reason",
          "valueCode": "unknown"
        } ]
      }
    },
    "request": {
      "method": "POST",
      "url": "Condition",
      "ifNoneExist": "identifier=https://mein.krankenhaus.de/fhir/NamingSystem/conditionId|417ec3350d482661f15290c617f7f09aebd6b11034bc7399d06d254f6d2573ec"
    }
  }, {
    "fullUrl": "Condition/08bc374bf803b3c52efb4338a371d12672fc41f4205ab2c3f216a93d96832e8c",
    "resource": {
      "resourceType": "Condition",
      "meta": {
        "profile": [ "https://www.netzwerk-universitaetsmedizin.de/fhir/StructureDefinition/malignant-neoplastic-disease" ]
      },
      "modifierExtension": [ {
        "url": "https://www.netzwerk-universitaetsmedizin.de/fhir/StructureDefinition/uncertainty-of-presence",
        "valueCodeableConcept": {
          "coding": [ {
            "system": "http://snomed.info/sct",
            "code": "261665006",
            "display": "Unknown (qualifier value)"
          } ],
          "text": "Presence unknown."
        }
      } ],
      "identifier": [ {
        "system": "https://mein.krankenhaus.de/fhir/NamingSystem/conditionId",
        "value": "2250860cf994f6b4b69fc48164de42a9eec7e7aa4de235d64e429549433f96b6"
      } ],
      "category": [ {
        "coding": [ {
          "system": "http://snomed.info/sct",
          "code": "394593009",
          "display": "Medical oncology (qualifier value)"
        } ]
      } ],
      "code": {
        "coding": [ {
          "system": "http://fhir.de/CodeSystem/dimdi/icd-10-gm",
          "version": "2021",
          "code": "C80.9"
        }, {
          "system": "http://snomed.info/sct",
          "code": "363346000"
        } ]
      },
      "subject": {
        "reference": "Patient/51ad521ffefaa7f5e58cc4e58b89c4998404f7c6201609a2881d9c483bfeca68"
      },
      "encounter": {
        "reference": "Encounter/d4f3f361f77cd1a463c3ca6e9d61f589a3822a1e2a1ac2f7b65fe98e5cd351fa"
      },
      "_recordedDate": {
        "extension": [ {
          "url": "http://hl7.org/fhir/StructureDefinition/data-absent-reason",
          "valueCode": "unknown"
        } ]
      }
    },
    "request": {
      "method": "POST",
      "url": "Condition",
      "ifNoneExist": "identifier=https://mein.krankenhaus.de/fhir/NamingSystem/conditionId|08bc374bf803b3c52efb4338a371d12672fc41f4205ab2c3f216a93d96832e8c"
    }
  }, {
    "fullUrl": "Condition/9fa00f424a09c3fa6bd66236418d7740c8d2cef58fb486887527e7f01392b68e",
    "resource": {
      "resourceType": "Condition",
      "meta": {
        "profile": [ "https://www.netzwerk-universitaetsmedizin.de/fhir/StructureDefinition/gastrointestinal-ulcers" ]
      },
      "identifier": [ {
        "system": "https://mein.krankenhaus.de/fhir/NamingSystem/conditionId",
        "value": "8e5aad63b7740d8367c042e9b0e66db1a8e58cbe1ebbf8afc406c7bcde7c6f15"
      } ],
      "verificationStatus": {
        "coding": [ {
          "system": "http://terminology.hl7.org/CodeSystem/condition-ver-status",
          "code": "refuted",
          "display": "Refuted"
        }, {
          "system": "http://snomed.info/sct",
          "code": "410594000",
          "display": "Definitely NOT present (qualifier value)"
        } ]
      },
      "category": [ {
        "coding": [ {
          "system": "http://snomed.info/sct",
          "code": "394584008",
          "display": "Gastroenterology (qualifier value))"
        } ]
      } ],
      "code": {
        "coding": [ {
          "system": "http://fhir.de/CodeSystem/dimdi/icd-10-gm",
          "version": "2021",
          "code": "K28"
        }, {
          "system": "http://snomed.info/sct",
          "code": "40845000"
        } ]
      },
      "subject": {
        "reference": "Patient/51ad521ffefaa7f5e58cc4e58b89c4998404f7c6201609a2881d9c483bfeca68"
      },
      "encounter": {
        "reference": "Encounter/d4f3f361f77cd1a463c3ca6e9d61f589a3822a1e2a1ac2f7b65fe98e5cd351fa"
      },
      "_recordedDate": {
        "extension": [ {
          "url": "http://hl7.org/fhir/StructureDefinition/data-absent-reason",
          "valueCode": "unknown"
        } ]
      }
    },
    "request": {
      "method": "POST",
      "url": "Condition",
      "ifNoneExist": "identifier=https://mein.krankenhaus.de/fhir/NamingSystem/conditionId|9fa00f424a09c3fa6bd66236418d7740c8d2cef58fb486887527e7f01392b68e"
    }
  }, {
    "fullUrl": "Observation/d024b5e179ee1403c619ddd5c1ec07e102b8d5bdf1c6f63d7c02265bc45383e0",
    "resource": {
      "resourceType": "Observation",
      "meta": {
        "profile": [ "https://www.netzwerk-universitaetsmedizin.de/fhir/StructureDefinition/history-of-travel" ]
      },
      "identifier": [ {
        "type": {
          "coding": [ {
            "system": "http://terminology.hl7.org/CodeSystem/v2-0203",
            "code": "OBI",
            "display": "Observation Instance Identifier"
          } ]
        },
        "system": "https://mein.krankenhaus.de/fhir/NamingSystem/observationId",
        "value": "16661c74aea95a7c3f1341d3a9cd49f0be0925befb0d809b48eef0ee6fdab9d4",
        "assigner": {
          "reference": "Organization/3a4f3433bce81181bad2d8e0b8fafccf7dc800bc06f29be73dcb38b750a48f9a"
        }
      } ],
      "status": "final",
      "category": [ {
        "coding": [ {
          "system": "http://terminology.hl7.org/CodeSystem/observation-category",
          "code": "social-history",
          "display": "Social History"
        } ]
      } ],
      "code": {
        "coding": [ {
          "system": "http://loinc.org",
          "code": "8691-8"
        }, {
          "system": "http://snomed.info/sct",
          "code": "443846001"
        } ],
        "text": "History of Travel"
      },
      "subject": {
        "reference": "Patient/51ad521ffefaa7f5e58cc4e58b89c4998404f7c6201609a2881d9c483bfeca68"
      },
      "encounter": {
        "reference": "Encounter/d4f3f361f77cd1a463c3ca6e9d61f589a3822a1e2a1ac2f7b65fe98e5cd351fa"
      },
      "_effectiveDateTime": {
        "extension": [ {
          "url": "http://hl7.org/fhir/StructureDefinition/data-absent-reason",
          "valueCode": "unknown"
        } ]
      },
      "valueCodeableConcept": {
        "coding": [ {
          "system": "http://snomed.info/sct",
          "code": "373066001"
        } ]
      },
      "component": [ {
        "code": {
          "coding": [ {
            "system": "http://loinc.org",
            "code": "82752-7",
            "display": "Date travel started"
          } ],
          "text": "Travel start date"
        },
        "valueDateTime": "2020-08-20"
      }, {
        "code": {
          "coding": [ {
            "system": "http://loinc.org",
            "code": "91560-3",
            "display": "Date of departure from travel destination"
          } ],
          "text": "Travel end date"
        },
        "valueDateTime": "2020-03-30"
      }, {
        "code": {
          "coding": [ {
            "system": "http://loinc.org",
            "code": "94651-7",
            "display": "Country of travel"
          } ],
          "text": "Country of travel"
        },
        "valueCodeableConcept": {
          "coding": [ {
            "system": "urn:iso:std:iso:3166",
            "code": "EC",
            "display": "Ecuador"
          } ],
          "text": "Ecuador"
        }
      } ]
    },
    "request": {
      "method": "POST",
      "url": "Observation",
      "ifNoneExist": "identifier=https://mein.krankenhaus.de/fhir/NamingSystem/observationId|d024b5e179ee1403c619ddd5c1ec07e102b8d5bdf1c6f63d7c02265bc45383e0"
    }
  }, {
    "fullUrl": "Observation/d5fc0dbb3a7477c4d96bc9fc94bafa5ace0b835070e0730402abed5a489280ba",
    "resource": {
      "resourceType": "Observation",
      "meta": {
        "profile": [ "https://www.netzwerk-universitaetsmedizin.de/fhir/StructureDefinition/history-of-travel" ]
      },
      "identifier": [ {
        "type": {
          "coding": [ {
            "system": "http://terminology.hl7.org/CodeSystem/v2-0203",
            "code": "OBI",
            "display": "Observation Instance Identifier"
          } ]
        },
        "system": "https://mein.krankenhaus.de/fhir/NamingSystem/observationId",
        "value": "ae0bbc40134efc8d7baa7e5b3d61017148f9b5f0ab784b937dbbe994ed05c45f",
        "assigner": {
          "reference": "Organization/3a4f3433bce81181bad2d8e0b8fafccf7dc800bc06f29be73dcb38b750a48f9a"
        }
      } ],
      "status": "final",
      "category": [ {
        "coding": [ {
          "system": "http://terminology.hl7.org/CodeSystem/observation-category",
          "code": "social-history",
          "display": "Social History"
        } ]
      } ],
      "code": {
        "coding": [ {
          "system": "http://loinc.org",
          "code": "8691-8"
        }, {
          "system": "http://snomed.info/sct",
          "code": "443846001"
        } ],
        "text": "History of Travel"
      },
      "subject": {
        "reference": "Patient/51ad521ffefaa7f5e58cc4e58b89c4998404f7c6201609a2881d9c483bfeca68"
      },
      "encounter": {
        "reference": "Encounter/d4f3f361f77cd1a463c3ca6e9d61f589a3822a1e2a1ac2f7b65fe98e5cd351fa"
      },
      "_effectiveDateTime": {
        "extension": [ {
          "url": "http://hl7.org/fhir/StructureDefinition/data-absent-reason",
          "valueCode": "unknown"
        } ]
      },
      "valueCodeableConcept": {
        "coding": [ {
          "system": "http://snomed.info/sct",
          "code": "373066001"
        } ]
      },
      "component": [ {
        "code": {
          "coding": [ {
            "system": "http://loinc.org",
            "code": "82752-7",
            "display": "Date travel started"
          } ],
          "text": "Travel start date"
        },
        "valueDateTime": "2020-05-20"
      }, {
        "code": {
          "coding": [ {
            "system": "http://loinc.org",
            "code": "91560-3",
            "display": "Date of departure from travel destination"
          } ],
          "text": "Travel end date"
        },
        "valueDateTime": "2020-08-12"
      }, {
        "code": {
          "coding": [ {
            "system": "http://loinc.org",
            "code": "94651-7",
            "display": "Country of travel"
          } ],
          "text": "Country of travel"
        },
        "valueCodeableConcept": {
          "coding": [ {
            "system": "urn:iso:std:iso:3166",
            "code": "BQ",
            "display": "Caribbean Netherlands"
          } ],
          "text": "Caribbean Netherlands"
        }
      } ]
    },
    "request": {
      "method": "POST",
      "url": "Observation",
      "ifNoneExist": "identifier=https://mein.krankenhaus.de/fhir/NamingSystem/observationId|d5fc0dbb3a7477c4d96bc9fc94bafa5ace0b835070e0730402abed5a489280ba"
    }
  }, {
    "fullUrl": "Observation/82be7be8cb46139ab6ce1554f885e9343266c2ef412f4ae3f30866b8235944f2",
    "resource": {
      "resourceType": "Observation",
      "meta": {
        "profile": [ "https://www.netzwerk-universitaetsmedizin.de/fhir/StructureDefinition/history-of-travel" ]
      },
      "identifier": [ {
        "type": {
          "coding": [ {
            "system": "http://terminology.hl7.org/CodeSystem/v2-0203",
            "code": "OBI",
            "display": "Observation Instance Identifier"
          } ]
        },
        "system": "https://mein.krankenhaus.de/fhir/NamingSystem/observationId",
        "value": "c24a4f9bd2880baa263304c242494a3e0d46e99b33fe68ce0991fc51ff99da25",
        "assigner": {
          "reference": "Organization/3a4f3433bce81181bad2d8e0b8fafccf7dc800bc06f29be73dcb38b750a48f9a"
        }
      } ],
      "status": "final",
      "category": [ {
        "coding": [ {
          "system": "http://terminology.hl7.org/CodeSystem/observation-category",
          "code": "social-history",
          "display": "Social History"
        } ]
      } ],
      "code": {
        "coding": [ {
          "system": "http://loinc.org",
          "code": "8691-8"
        }, {
          "system": "http://snomed.info/sct",
          "code": "443846001"
        } ],
        "text": "History of Travel"
      },
      "subject": {
        "reference": "Patient/51ad521ffefaa7f5e58cc4e58b89c4998404f7c6201609a2881d9c483bfeca68"
      },
      "encounter": {
        "reference": "Encounter/d4f3f361f77cd1a463c3ca6e9d61f589a3822a1e2a1ac2f7b65fe98e5cd351fa"
      },
      "_effectiveDateTime": {
        "extension": [ {
          "url": "http://hl7.org/fhir/StructureDefinition/data-absent-reason",
          "valueCode": "unknown"
        } ]
      },
      "valueCodeableConcept": {
        "coding": [ {
          "system": "http://snomed.info/sct",
          "code": "373066001"
        } ]
      },
      "component": [ {
        "code": {
          "coding": [ {
            "system": "http://loinc.org",
            "code": "82752-7",
            "display": "Date travel started"
          } ],
          "text": "Travel start date"
        },
        "valueDateTime": "2020-08-19"
      }, {
        "code": {
          "coding": [ {
            "system": "http://loinc.org",
            "code": "91560-3",
            "display": "Date of departure from travel destination"
          } ],
          "text": "Travel end date"
        },
        "valueDateTime": "2020-12-29"
      }, {
        "code": {
          "coding": [ {
            "system": "http://loinc.org",
            "code": "94651-7",
            "display": "Country of travel"
          } ],
          "text": "Country of travel"
        },
        "valueCodeableConcept": {
          "coding": [ {
            "system": "urn:iso:std:iso:3166",
            "code": "PR",
            "display": "Puerto Rico"
          } ],
          "text": "Puerto Rico"
        }
      } ]
    },
    "request": {
      "method": "POST",
      "url": "Observation",
      "ifNoneExist": "identifier=https://mein.krankenhaus.de/fhir/NamingSystem/observationId|82be7be8cb46139ab6ce1554f885e9343266c2ef412f4ae3f30866b8235944f2"
    }
  }, {
    "fullUrl": "Observation/4927b5c8487337df4df1ae9b3ecb64aee8d4f7d6c13457d4c344c4f22b93957b",
    "resource": {
      "resourceType": "Observation",
      "meta": {
        "profile": [ "https://www.netzwerk-universitaetsmedizin.de/fhir/StructureDefinition/history-of-travel" ]
      },
      "identifier": [ {
        "type": {
          "coding": [ {
            "system": "http://terminology.hl7.org/CodeSystem/v2-0203",
            "code": "OBI",
            "display": "Observation Instance Identifier"
          } ]
        },
        "system": "https://mein.krankenhaus.de/fhir/NamingSystem/observationId",
        "value": "90e5c2af4fd2cf6b935190262e04b7b99688912aed3eac81c8ba9dedc8773e22",
        "assigner": {
          "reference": "Organization/3a4f3433bce81181bad2d8e0b8fafccf7dc800bc06f29be73dcb38b750a48f9a"
        }
      } ],
      "status": "final",
      "category": [ {
        "coding": [ {
          "system": "http://terminology.hl7.org/CodeSystem/observation-category",
          "code": "social-history",
          "display": "Social History"
        } ]
      } ],
      "code": {
        "coding": [ {
          "system": "http://loinc.org",
          "code": "8691-8"
        }, {
          "system": "http://snomed.info/sct",
          "code": "443846001"
        } ],
        "text": "History of Travel"
      },
      "subject": {
        "reference": "Patient/51ad521ffefaa7f5e58cc4e58b89c4998404f7c6201609a2881d9c483bfeca68"
      },
      "encounter": {
        "reference": "Encounter/d4f3f361f77cd1a463c3ca6e9d61f589a3822a1e2a1ac2f7b65fe98e5cd351fa"
      },
      "_effectiveDateTime": {
        "extension": [ {
          "url": "http://hl7.org/fhir/StructureDefinition/data-absent-reason",
          "valueCode": "unknown"
        } ]
      },
      "valueCodeableConcept": {
        "coding": [ {
          "system": "http://snomed.info/sct",
          "code": "373066001"
        } ]
      },
      "component": [ {
        "code": {
          "coding": [ {
            "system": "http://loinc.org",
            "code": "82752-7",
            "display": "Date travel started"
          } ],
          "text": "Travel start date"
        },
        "valueDateTime": "2020-09-25"
      }, {
        "code": {
          "coding": [ {
            "system": "http://loinc.org",
            "code": "91560-3",
            "display": "Date of departure from travel destination"
          } ],
          "text": "Travel end date"
        },
        "valueDateTime": "2020-03-04"
      }, {
        "code": {
          "coding": [ {
            "system": "http://loinc.org",
            "code": "94651-7",
            "display": "Country of travel"
          } ],
          "text": "Country of travel"
        },
        "valueCodeableConcept": {
          "coding": [ {
            "system": "urn:iso:std:iso:3166",
            "code": "CF",
            "display": "Central African Republic"
          } ],
          "text": "Central African Republic"
        }
      } ]
    },
    "request": {
      "method": "POST",
      "url": "Observation",
      "ifNoneExist": "identifier=https://mein.krankenhaus.de/fhir/NamingSystem/observationId|4927b5c8487337df4df1ae9b3ecb64aee8d4f7d6c13457d4c344c4f22b93957b"
    }
  }, {
    "fullUrl": "Observation/4098ba87a98721c784bd17806092d287ba6ffedd4d615f39ece60964054ef47c",
    "resource": {
      "resourceType": "Observation",
      "meta": {
        "profile": [ "https://www.netzwerk-universitaetsmedizin.de/fhir/StructureDefinition/history-of-travel" ]
      },
      "identifier": [ {
        "type": {
          "coding": [ {
            "system": "http://terminology.hl7.org/CodeSystem/v2-0203",
            "code": "OBI",
            "display": "Observation Instance Identifier"
          } ]
        },
        "system": "https://mein.krankenhaus.de/fhir/NamingSystem/observationId",
        "value": "70fcbfd7d6c5f15c7ad091da8b4d4e1c0ecfad54d9f362e9c7d406c9b07a2c58",
        "assigner": {
          "reference": "Organization/3a4f3433bce81181bad2d8e0b8fafccf7dc800bc06f29be73dcb38b750a48f9a"
        }
      } ],
      "status": "final",
      "category": [ {
        "coding": [ {
          "system": "http://terminology.hl7.org/CodeSystem/observation-category",
          "code": "social-history",
          "display": "Social History"
        } ]
      } ],
      "code": {
        "coding": [ {
          "system": "http://loinc.org",
          "code": "8691-8"
        }, {
          "system": "http://snomed.info/sct",
          "code": "443846001"
        } ],
        "text": "History of Travel"
      },
      "subject": {
        "reference": "Patient/51ad521ffefaa7f5e58cc4e58b89c4998404f7c6201609a2881d9c483bfeca68"
      },
      "encounter": {
        "reference": "Encounter/d4f3f361f77cd1a463c3ca6e9d61f589a3822a1e2a1ac2f7b65fe98e5cd351fa"
      },
      "_effectiveDateTime": {
        "extension": [ {
          "url": "http://hl7.org/fhir/StructureDefinition/data-absent-reason",
          "valueCode": "unknown"
        } ]
      },
      "valueCodeableConcept": {
        "coding": [ {
          "system": "http://snomed.info/sct",
          "code": "373066001"
        } ]
      },
      "component": [ {
        "code": {
          "coding": [ {
            "system": "http://loinc.org",
            "code": "82752-7",
            "display": "Date travel started"
          } ],
          "text": "Travel start date"
        },
        "valueDateTime": "2020-01-01"
      }, {
        "code": {
          "coding": [ {
            "system": "http://loinc.org",
            "code": "91560-3",
            "display": "Date of departure from travel destination"
          } ],
          "text": "Travel end date"
        },
        "valueDateTime": "2020-01-06"
      }, {
        "code": {
          "coding": [ {
            "system": "http://loinc.org",
            "code": "94651-7",
            "display": "Country of travel"
          } ],
          "text": "Country of travel"
        },
        "valueCodeableConcept": {
          "coding": [ {
            "system": "urn:iso:std:iso:3166",
            "code": "SA",
            "display": "Saudi Arabia"
          } ],
          "text": "Saudi Arabia"
        }
      } ]
    },
    "request": {
      "method": "POST",
      "url": "Observation",
      "ifNoneExist": "identifier=https://mein.krankenhaus.de/fhir/NamingSystem/observationId|4098ba87a98721c784bd17806092d287ba6ffedd4d615f39ece60964054ef47c"
    }
  }, {
    "fullUrl": "Observation/af8de388fa455d49f9b6e88f405c136f0ed25e70eb272b39c4db0a2ca632fdda",
    "resource": {
      "resourceType": "Observation",
      "meta": {
        "profile": [ "https://www.netzwerk-universitaetsmedizin.de/fhir/StructureDefinition/history-of-travel" ]
      },
      "identifier": [ {
        "type": {
          "coding": [ {
            "system": "http://terminology.hl7.org/CodeSystem/v2-0203",
            "code": "OBI",
            "display": "Observation Instance Identifier"
          } ]
        },
        "system": "https://mein.krankenhaus.de/fhir/NamingSystem/observationId",
        "value": "1148c5296781797f4afa3f619ae022ccdf761932b884894990f77b99cdcc917f",
        "assigner": {
          "reference": "Organization/3a4f3433bce81181bad2d8e0b8fafccf7dc800bc06f29be73dcb38b750a48f9a"
        }
      } ],
      "status": "final",
      "category": [ {
        "coding": [ {
          "system": "http://terminology.hl7.org/CodeSystem/observation-category",
          "code": "social-history",
          "display": "Social History"
        } ]
      } ],
      "code": {
        "coding": [ {
          "system": "http://loinc.org",
          "code": "8691-8"
        }, {
          "system": "http://snomed.info/sct",
          "code": "443846001"
        } ],
        "text": "History of Travel"
      },
      "subject": {
        "reference": "Patient/51ad521ffefaa7f5e58cc4e58b89c4998404f7c6201609a2881d9c483bfeca68"
      },
      "encounter": {
        "reference": "Encounter/d4f3f361f77cd1a463c3ca6e9d61f589a3822a1e2a1ac2f7b65fe98e5cd351fa"
      },
      "_effectiveDateTime": {
        "extension": [ {
          "url": "http://hl7.org/fhir/StructureDefinition/data-absent-reason",
          "valueCode": "unknown"
        } ]
      },
      "valueCodeableConcept": {
        "coding": [ {
          "system": "http://snomed.info/sct",
          "code": "373066001"
        } ]
      },
      "component": [ {
        "code": {
          "coding": [ {
            "system": "http://loinc.org",
            "code": "82752-7",
            "display": "Date travel started"
          } ],
          "text": "Travel start date"
        },
        "valueDateTime": "2020-08-27"
      }, {
        "code": {
          "coding": [ {
            "system": "http://loinc.org",
            "code": "91560-3",
            "display": "Date of departure from travel destination"
          } ],
          "text": "Travel end date"
        },
        "valueDateTime": "2020-04-04"
      }, {
        "code": {
          "coding": [ {
            "system": "http://loinc.org",
            "code": "94651-7",
            "display": "Country of travel"
          } ],
          "text": "Country of travel"
        },
        "valueCodeableConcept": {
          "coding": [ {
            "system": "urn:iso:std:iso:3166",
            "code": "AQ",
            "display": "Antarctica"
          } ],
          "text": "Antarctica"
        }
      } ]
    },
    "request": {
      "method": "POST",
      "url": "Observation",
      "ifNoneExist": "identifier=https://mein.krankenhaus.de/fhir/NamingSystem/observationId|af8de388fa455d49f9b6e88f405c136f0ed25e70eb272b39c4db0a2ca632fdda"
    }
  }, {
    "fullUrl": "Observation/59a02cb6f03f0ed0a19065e2a0663ab57856b80a41b6dd04fa2b3c8f8419e26a",
    "resource": {
      "resourceType": "Observation",
      "meta": {
        "profile": [ "https://www.netzwerk-universitaetsmedizin.de/fhir/StructureDefinition/history-of-travel" ]
      },
      "identifier": [ {
        "type": {
          "coding": [ {
            "system": "http://terminology.hl7.org/CodeSystem/v2-0203",
            "code": "OBI",
            "display": "Observation Instance Identifier"
          } ]
        },
        "system": "https://mein.krankenhaus.de/fhir/NamingSystem/observationId",
        "value": "e64a6a54ee8b5dc6e9f52a9718c667d97c11c0be9107fc208c57eb6c257c2126",
        "assigner": {
          "reference": "Organization/3a4f3433bce81181bad2d8e0b8fafccf7dc800bc06f29be73dcb38b750a48f9a"
        }
      } ],
      "status": "final",
      "category": [ {
        "coding": [ {
          "system": "http://terminology.hl7.org/CodeSystem/observation-category",
          "code": "social-history",
          "display": "Social History"
        } ]
      } ],
      "code": {
        "coding": [ {
          "system": "http://loinc.org",
          "code": "8691-8"
        }, {
          "system": "http://snomed.info/sct",
          "code": "443846001"
        } ],
        "text": "History of Travel"
      },
      "subject": {
        "reference": "Patient/51ad521ffefaa7f5e58cc4e58b89c4998404f7c6201609a2881d9c483bfeca68"
      },
      "encounter": {
        "reference": "Encounter/d4f3f361f77cd1a463c3ca6e9d61f589a3822a1e2a1ac2f7b65fe98e5cd351fa"
      },
      "_effectiveDateTime": {
        "extension": [ {
          "url": "http://hl7.org/fhir/StructureDefinition/data-absent-reason",
          "valueCode": "unknown"
        } ]
      },
      "valueCodeableConcept": {
        "coding": [ {
          "system": "http://snomed.info/sct",
          "code": "373066001"
        } ]
      },
      "component": [ {
        "code": {
          "coding": [ {
            "system": "http://loinc.org",
            "code": "82752-7",
            "display": "Date travel started"
          } ],
          "text": "Travel start date"
        },
        "valueDateTime": "2020-02-23"
      }, {
        "code": {
          "coding": [ {
            "system": "http://loinc.org",
            "code": "91560-3",
            "display": "Date of departure from travel destination"
          } ],
          "text": "Travel end date"
        },
        "valueDateTime": "2020-05-14"
      }, {
        "code": {
          "coding": [ {
            "system": "http://loinc.org",
            "code": "94651-7",
            "display": "Country of travel"
          } ],
          "text": "Country of travel"
        },
        "valueCodeableConcept": {
          "coding": [ {
            "system": "urn:iso:std:iso:3166",
            "code": "ZA",
            "display": "South Africa"
          } ],
          "text": "South Africa"
        }
      } ]
    },
    "request": {
      "method": "POST",
      "url": "Observation",
      "ifNoneExist": "identifier=https://mein.krankenhaus.de/fhir/NamingSystem/observationId|59a02cb6f03f0ed0a19065e2a0663ab57856b80a41b6dd04fa2b3c8f8419e26a"
    }
  }, {
    "fullUrl": "Observation/7f4a47adc5784f38f87143cd385528e768ce4b0b555e3804111378d956c568d3",
    "resource": {
      "resourceType": "Observation",
      "meta": {
        "profile": [ "https://www.netzwerk-universitaetsmedizin.de/fhir/StructureDefinition/history-of-travel" ]
      },
      "identifier": [ {
        "type": {
          "coding": [ {
            "system": "http://terminology.hl7.org/CodeSystem/v2-0203",
            "code": "OBI",
            "display": "Observation Instance Identifier"
          } ]
        },
        "system": "https://mein.krankenhaus.de/fhir/NamingSystem/observationId",
        "value": "eda8aa5997f807fa384c136af2b14ce2c627e672f75cab96988375acaebfb98a",
        "assigner": {
          "reference": "Organization/3a4f3433bce81181bad2d8e0b8fafccf7dc800bc06f29be73dcb38b750a48f9a"
        }
      } ],
      "status": "final",
      "category": [ {
        "coding": [ {
          "system": "http://terminology.hl7.org/CodeSystem/observation-category",
          "code": "social-history",
          "display": "Social History"
        } ]
      } ],
      "code": {
        "coding": [ {
          "system": "http://loinc.org",
          "code": "8691-8"
        }, {
          "system": "http://snomed.info/sct",
          "code": "443846001"
        } ],
        "text": "History of Travel"
      },
      "subject": {
        "reference": "Patient/51ad521ffefaa7f5e58cc4e58b89c4998404f7c6201609a2881d9c483bfeca68"
      },
      "encounter": {
        "reference": "Encounter/d4f3f361f77cd1a463c3ca6e9d61f589a3822a1e2a1ac2f7b65fe98e5cd351fa"
      },
      "_effectiveDateTime": {
        "extension": [ {
          "url": "http://hl7.org/fhir/StructureDefinition/data-absent-reason",
          "valueCode": "unknown"
        } ]
      },
      "valueCodeableConcept": {
        "coding": [ {
          "system": "http://snomed.info/sct",
          "code": "373066001"
        } ]
      },
      "component": [ {
        "code": {
          "coding": [ {
            "system": "http://loinc.org",
            "code": "91560-3",
            "display": "Date of departure from travel destination"
          } ],
          "text": "Travel end date"
        },
        "valueDateTime": "2020-12-25"
      }, {
        "code": {
          "coding": [ {
            "system": "http://loinc.org",
            "code": "94651-7",
            "display": "Country of travel"
          } ],
          "text": "Country of travel"
        },
        "valueCodeableConcept": {
          "coding": [ {
            "system": "urn:iso:std:iso:3166",
            "code": "NZ",
            "display": "New Zealand"
          } ],
          "text": "New Zealand"
        }
      } ]
    },
    "request": {
      "method": "POST",
      "url": "Observation",
      "ifNoneExist": "identifier=https://mein.krankenhaus.de/fhir/NamingSystem/observationId|7f4a47adc5784f38f87143cd385528e768ce4b0b555e3804111378d956c568d3"
    }
  }, {
    "fullUrl": "Observation/0ff360af52aa35655db119450dc241e24b3e192231b22bec68d2ee1b385a98b6",
    "resource": {
      "resourceType": "Observation",
      "meta": {
        "profile": [ "https://www.netzwerk-universitaetsmedizin.de/fhir/StructureDefinition/history-of-travel" ]
      },
      "identifier": [ {
        "type": {
          "coding": [ {
            "system": "http://terminology.hl7.org/CodeSystem/v2-0203",
            "code": "OBI",
            "display": "Observation Instance Identifier"
          } ]
        },
        "system": "https://mein.krankenhaus.de/fhir/NamingSystem/observationId",
        "value": "a3eb06f1631cc68a7f44bdb039b75d308524cf14566ae214fd05f1436c792908",
        "assigner": {
          "reference": "Organization/3a4f3433bce81181bad2d8e0b8fafccf7dc800bc06f29be73dcb38b750a48f9a"
        }
      } ],
      "status": "final",
      "category": [ {
        "coding": [ {
          "system": "http://terminology.hl7.org/CodeSystem/observation-category",
          "code": "social-history",
          "display": "Social History"
        } ]
      } ],
      "code": {
        "coding": [ {
          "system": "http://loinc.org",
          "code": "8691-8"
        }, {
          "system": "http://snomed.info/sct",
          "code": "443846001"
        } ],
        "text": "History of Travel"
      },
      "subject": {
        "reference": "Patient/51ad521ffefaa7f5e58cc4e58b89c4998404f7c6201609a2881d9c483bfeca68"
      },
      "encounter": {
        "reference": "Encounter/d4f3f361f77cd1a463c3ca6e9d61f589a3822a1e2a1ac2f7b65fe98e5cd351fa"
      },
      "_effectiveDateTime": {
        "extension": [ {
          "url": "http://hl7.org/fhir/StructureDefinition/data-absent-reason",
          "valueCode": "unknown"
        } ]
      },
      "valueCodeableConcept": {
        "coding": [ {
          "system": "http://snomed.info/sct",
          "code": "373066001"
        } ]
      },
      "component": [ {
        "code": {
          "coding": [ {
            "system": "http://loinc.org",
            "code": "82752-7",
            "display": "Date travel started"
          } ],
          "text": "Travel start date"
        },
        "valueDateTime": "2020-10-26"
      }, {
        "code": {
          "coding": [ {
            "system": "http://loinc.org",
            "code": "91560-3",
            "display": "Date of departure from travel destination"
          } ],
          "text": "Travel end date"
        },
        "valueDateTime": "2020-04-19"
      }, {
        "code": {
          "coding": [ {
            "system": "http://loinc.org",
            "code": "94651-7",
            "display": "Country of travel"
          } ],
          "text": "Country of travel"
        },
        "valueCodeableConcept": {
          "coding": [ {
            "system": "urn:iso:std:iso:3166",
            "code": "AQ",
            "display": "Antarctica"
          } ],
          "text": "Antarctica"
        }
      } ]
    },
    "request": {
      "method": "POST",
      "url": "Observation",
      "ifNoneExist": "identifier=https://mein.krankenhaus.de/fhir/NamingSystem/observationId|0ff360af52aa35655db119450dc241e24b3e192231b22bec68d2ee1b385a98b6"
    }
  }, {
    "fullUrl": "Observation/24e38c8fd10e442cedaaae4c3570186f0bae094e2a318372a44174c65d49420b",
    "resource": {
      "resourceType": "Observation",
      "meta": {
        "profile": [ "https://www.netzwerk-universitaetsmedizin.de/fhir/StructureDefinition/history-of-travel" ]
      },
      "identifier": [ {
        "type": {
          "coding": [ {
            "system": "http://terminology.hl7.org/CodeSystem/v2-0203",
            "code": "OBI",
            "display": "Observation Instance Identifier"
          } ]
        },
        "system": "https://mein.krankenhaus.de/fhir/NamingSystem/observationId",
        "value": "9403b7eec32d0ca6ee32638b8b20fb3ed04e0fdaa15fbb3bddf7854d1a9eac50",
        "assigner": {
          "reference": "Organization/3a4f3433bce81181bad2d8e0b8fafccf7dc800bc06f29be73dcb38b750a48f9a"
        }
      } ],
      "status": "final",
      "category": [ {
        "coding": [ {
          "system": "http://terminology.hl7.org/CodeSystem/observation-category",
          "code": "social-history",
          "display": "Social History"
        } ]
      } ],
      "code": {
        "coding": [ {
          "system": "http://loinc.org",
          "code": "8691-8"
        }, {
          "system": "http://snomed.info/sct",
          "code": "443846001"
        } ],
        "text": "History of Travel"
      },
      "subject": {
        "reference": "Patient/51ad521ffefaa7f5e58cc4e58b89c4998404f7c6201609a2881d9c483bfeca68"
      },
      "encounter": {
        "reference": "Encounter/d4f3f361f77cd1a463c3ca6e9d61f589a3822a1e2a1ac2f7b65fe98e5cd351fa"
      },
      "_effectiveDateTime": {
        "extension": [ {
          "url": "http://hl7.org/fhir/StructureDefinition/data-absent-reason",
          "valueCode": "unknown"
        } ]
      },
      "valueCodeableConcept": {
        "coding": [ {
          "system": "http://snomed.info/sct",
          "code": "373066001"
        } ]
      },
      "component": [ {
        "code": {
          "coding": [ {
            "system": "http://loinc.org",
            "code": "82752-7",
            "display": "Date travel started"
          } ],
          "text": "Travel start date"
        },
        "valueDateTime": "2020-12-09"
      }, {
        "code": {
          "coding": [ {
            "system": "http://loinc.org",
            "code": "91560-3",
            "display": "Date of departure from travel destination"
          } ],
          "text": "Travel end date"
        },
        "valueDateTime": "2020-03-04"
      }, {
        "code": {
          "coding": [ {
            "system": "http://loinc.org",
            "code": "94651-7",
            "display": "Country of travel"
          } ],
          "text": "Country of travel"
        },
        "valueCodeableConcept": {
          "coding": [ {
            "system": "urn:iso:std:iso:3166",
            "code": "MQ",
            "display": "Martinique"
          } ],
          "text": "Martinique"
        }
      } ]
    },
    "request": {
      "method": "POST",
      "url": "Observation",
      "ifNoneExist": "identifier=https://mein.krankenhaus.de/fhir/NamingSystem/observationId|24e38c8fd10e442cedaaae4c3570186f0bae094e2a318372a44174c65d49420b"
    }
  }, {
    "fullUrl": "Procedure/08393a56637eaa4b340367b9dabe8db4f56daa36a8da65eb6a6f94767f8244c5",
    "resource": {
      "resourceType": "Procedure",
      "meta": {
        "profile": [ "https://www.netzwerk-universitaetsmedizin.de/fhir/StructureDefinition/respiratory-therapies" ]
      },
      "identifier": [ {
        "system": "https://mein.krankenhaus.de/fhir/NamingSystem/procedureId",
        "value": "6730ab695122875b2513a4911b6fe0be7400062a7567de5f239702c36f652b89"
      } ],
      "status": "unknown",
      "category": {
        "coding": [ {
          "system": "http://snomed.info/sct",
          "code": "277132007",
          "display": "Therapeutic procedure (procedure)"
        } ]
      },
      "code": {
        "coding": [ {
          "system": "http://snomed.info/sct",
          "code": "53950000"
        } ]
      },
      "subject": {
        "reference": "Patient/51ad521ffefaa7f5e58cc4e58b89c4998404f7c6201609a2881d9c483bfeca68"
      },
      "encounter": {
        "reference": "Encounter/d4f3f361f77cd1a463c3ca6e9d61f589a3822a1e2a1ac2f7b65fe98e5cd351fa"
      },
      "_performedDateTime": {
        "extension": [ {
          "url": "http://hl7.org/fhir/StructureDefinition/data-absent-reason",
          "valueCode": "unknown"
        } ]
      }
    },
    "request": {
      "method": "POST",
      "url": "Procedure",
      "ifNoneExist": "identifier=https://mein.krankenhaus.de/fhir/NamingSystem/procedureId|08393a56637eaa4b340367b9dabe8db4f56daa36a8da65eb6a6f94767f8244c5"
    }
  }, {
    "fullUrl": "Immunization/5f11da096ac59c9b4836baf5fd84207831a511e5ef22d90c704b07a68acd954c",
    "resource": {
      "resourceType": "Immunization",
      "meta": {
        "profile": [ "https://www.netzwerk-universitaetsmedizin.de/fhir/StructureDefinition/immunization" ]
      },
      "identifier": [ {
        "system": "https://mein.krankenhaus.de/fhir/NamingSystem/immunizationId",
        "value": "3aa06d1cd26180dcf9429b0d12e23b0812d0d9ed3e9bbf789bc3653445586091"
      } ],
      "status": "not-done",
      "vaccineCode": {
        "coding": [ {
          "system": "http://snomed.info/sct",
          "code": "836398006"
        } ]
      },
      "patient": {
        "reference": "Patient/51ad521ffefaa7f5e58cc4e58b89c4998404f7c6201609a2881d9c483bfeca68"
      },
      "encounter": {
        "reference": "Encounter/d4f3f361f77cd1a463c3ca6e9d61f589a3822a1e2a1ac2f7b65fe98e5cd351fa"
      },
      "_occurrenceDateTime": {
        "extension": [ {
          "url": "http://hl7.org/fhir/StructureDefinition/data-absent-reason",
          "valueCode": "unknown"
        } ]
      },
      "protocolApplied": [ {
        "targetDisease": [ {
          "coding": [ {
            "system": "http://snomed.info/sct",
            "code": "16814004"
          } ]
        } ],
        "_doseNumberString": {
          "extension": [ {
            "url": "http://hl7.org/fhir/StructureDefinition/data-absent-reason",
            "valueCode": "unknown"
          } ]
        }
      } ]
    },
    "request": {
      "method": "POST",
      "url": "Immunization",
      "ifNoneExist": "identifier=https://mein.krankenhaus.de/fhir/NamingSystem/immunizationId|5f11da096ac59c9b4836baf5fd84207831a511e5ef22d90c704b07a68acd954c"
    }
  }, {
    "fullUrl": "Immunization/0922ecb48833538a2636e88cf7c1d9f190d9746976debc02f20f8e3705f1a288",
    "resource": {
      "resourceType": "Immunization",
      "meta": {
        "profile": [ "https://www.netzwerk-universitaetsmedizin.de/fhir/StructureDefinition/immunization" ]
      },
      "identifier": [ {
        "system": "https://mein.krankenhaus.de/fhir/NamingSystem/immunizationId",
        "value": "36c61566ccc2662582878a6376585f6790997656f16db9f7d9586bcf57a105bc"
      } ],
      "status": "completed",
      "vaccineCode": {
        "coding": [ {
          "system": "http://snomed.info/sct",
          "code": "836402002"
        } ]
      },
      "patient": {
        "reference": "Patient/51ad521ffefaa7f5e58cc4e58b89c4998404f7c6201609a2881d9c483bfeca68"
      },
      "encounter": {
        "reference": "Encounter/d4f3f361f77cd1a463c3ca6e9d61f589a3822a1e2a1ac2f7b65fe98e5cd351fa"
      },
      "occurrenceDateTime": "2020-10-10",
      "protocolApplied": [ {
        "targetDisease": [ {
          "coding": [ {
            "system": "http://snomed.info/sct",
            "code": "56717001"
          } ]
        } ],
        "_doseNumberString": {
          "extension": [ {
            "url": "http://hl7.org/fhir/StructureDefinition/data-absent-reason",
            "valueCode": "unknown"
          } ]
        }
      } ]
    },
    "request": {
      "method": "POST",
      "url": "Immunization",
      "ifNoneExist": "identifier=https://mein.krankenhaus.de/fhir/NamingSystem/immunizationId|0922ecb48833538a2636e88cf7c1d9f190d9746976debc02f20f8e3705f1a288"
    }
  }, {
    "fullUrl": "Immunization/8b0fb1b133e89dd1f7b3c1263cb0685df3e51374eab039c8598ec5be25eaddd7",
    "resource": {
      "resourceType": "Immunization",
      "meta": {
        "profile": [ "https://www.netzwerk-universitaetsmedizin.de/fhir/StructureDefinition/immunization" ]
      },
      "identifier": [ {
        "system": "https://mein.krankenhaus.de/fhir/NamingSystem/immunizationId",
        "value": "9120913a2970b06ee203d54e73606cf48e88c19bd6f02fedded367c821c8d92b"
      } ],
      "status": "not-done",
      "vaccineCode": {
        "coding": [ {
          "system": "http://snomed.info/sct",
          "code": "1119349007"
        } ]
      },
      "patient": {
        "reference": "Patient/51ad521ffefaa7f5e58cc4e58b89c4998404f7c6201609a2881d9c483bfeca68"
      },
      "encounter": {
        "reference": "Encounter/d4f3f361f77cd1a463c3ca6e9d61f589a3822a1e2a1ac2f7b65fe98e5cd351fa"
      },
      "_occurrenceDateTime": {
        "extension": [ {
          "url": "http://hl7.org/fhir/StructureDefinition/data-absent-reason",
          "valueCode": "unknown"
        } ]
      },
      "protocolApplied": [ {
        "targetDisease": [ {
          "coding": [ {
            "system": "http://snomed.info/sct",
            "code": "840539006"
          } ]
        } ],
        "_doseNumberString": {
          "extension": [ {
            "url": "http://hl7.org/fhir/StructureDefinition/data-absent-reason",
            "valueCode": "unknown"
          } ]
        }
      } ]
    },
    "request": {
      "method": "POST",
      "url": "Immunization",
      "ifNoneExist": "identifier=https://mein.krankenhaus.de/fhir/NamingSystem/immunizationId|8b0fb1b133e89dd1f7b3c1263cb0685df3e51374eab039c8598ec5be25eaddd7"
    }
  }, {
    "fullUrl": "Immunization/e3ebf54896526844bf208dcf0ee63fc1b123d0d3b8a5f25aba9e47c87c3cb15e",
    "resource": {
      "resourceType": "Immunization",
      "meta": {
        "profile": [ "https://www.netzwerk-universitaetsmedizin.de/fhir/StructureDefinition/immunization" ]
      },
      "identifier": [ {
        "system": "https://mein.krankenhaus.de/fhir/NamingSystem/immunizationId",
        "value": "24a8b3e9b4b886357e5daad01e4c97099786e8a05f321548dbf3ecd98665b2b4"
      } ],
      "status": "completed",
      "vaccineCode": {
        "coding": [ {
          "system": "http://hl7.org/fhir/uv/ips/CodeSystem/absent-unknown-uv-ips",
          "code": "no-known-immunizations",
          "display": "vaccineCode unknown"
        } ]
      },
      "patient": {
        "reference": "Patient/51ad521ffefaa7f5e58cc4e58b89c4998404f7c6201609a2881d9c483bfeca68"
      },
      "encounter": {
        "reference": "Encounter/d4f3f361f77cd1a463c3ca6e9d61f589a3822a1e2a1ac2f7b65fe98e5cd351fa"
      },
      "occurrenceDateTime": "2020-12-26",
      "protocolApplied": [ {
        "targetDisease": [ {
          "coding": [ {
            "system": "http://snomed.info/sct",
            "code": "64572001"
          } ],
          "text": "<Freitext>"
        } ],
        "_doseNumberString": {
          "extension": [ {
            "url": "http://hl7.org/fhir/StructureDefinition/data-absent-reason",
            "valueCode": "unknown"
          } ]
        }
      } ]
    },
    "request": {
      "method": "POST",
      "url": "Immunization",
      "ifNoneExist": "identifier=https://mein.krankenhaus.de/fhir/NamingSystem/immunizationId|e3ebf54896526844bf208dcf0ee63fc1b123d0d3b8a5f25aba9e47c87c3cb15e"
    }
  }, {
    "fullUrl": "Consent/1d3f289e7898f3fd8e532dd6c4b6912e54b85cebbd5c58c9a376aef13f7d72ff",
    "resource": {
      "resourceType": "Consent",
      "meta": {
        "profile": [ "https://www.netzwerk-universitaetsmedizin.de/fhir/StructureDefinition/do-not-resuscitate-order" ]
      },
      "identifier": [ {
        "system": "https://mein.krankenhaus.de/fhir/NamingSystem/consentId",
        "value": "4de471e6ee0dd3bf644e426e6dcb723f50c581e4e3aa9e4b9122afea9505fd0f"
      } ],
      "status": "active",
      "scope": {
        "coding": [ {
          "system": "http://terminology.hl7.org/CodeSystem/consentscope",
          "code": "adr",
          "display": "Advanced Care Directive"
        } ]
      },
      "category": [ {
        "coding": [ {
          "system": "http://terminology.hl7.org/CodeSystem/consentcategorycodes",
          "code": "dnr",
          "display": "Do Not Resuscitate"
        } ]
      } ],
      "patient": {
        "reference": "Patient/51ad521ffefaa7f5e58cc4e58b89c4998404f7c6201609a2881d9c483bfeca68"
      },
      "policy": [ {
        "uri": "https://www.aerzteblatt.de/archiv/65440/DNR-Anordnungen-Das-fehlende-Bindeglied"
      } ],
      "provision": {
        "code": [ {
          "coding": [ {
            "system": "http://snomed.info/sct",
            "code": "304253006"
          } ]
        } ]
      }
    },
    "request": {
      "method": "POST",
      "url": "Consent",
      "ifNoneExist": "identifier=https://mein.krankenhaus.de/fhir/NamingSystem/consentId|1d3f289e7898f3fd8e532dd6c4b6912e54b85cebbd5c58c9a376aef13f7d72ff"
    }
  }, {
    "fullUrl": "Observation/c380eea7163b478b03b3eb00b0a7304d992cb0cee34ac4090850b8f5eb8993a5",
    "resource": {
      "resourceType": "Observation",
      "meta": {
        "profile": [ "https://www.netzwerk-universitaetsmedizin.de/fhir/StructureDefinition/pregnancy-status" ]
      },
      "identifier": [ {
        "type": {
          "coding": [ {
            "system": "http://terminology.hl7.org/CodeSystem/v2-0203",
            "code": "OBI",
            "display": "Observation Instance Identifier"
          } ]
        },
        "system": "https://mein.krankenhaus.de/fhir/NamingSystem/observationId",
        "value": "32f368537dfb6f23ea1cb15ce347044538889af8304089daff7896619b10872c",
        "assigner": {
          "reference": "Organization/3a4f3433bce81181bad2d8e0b8fafccf7dc800bc06f29be73dcb38b750a48f9a"
        }
      } ],
      "status": "final",
      "category": [ {
        "coding": [ {
          "system": "http://terminology.hl7.org/CodeSystem/observation-category",
          "code": "social-history",
          "display": "Social History"
        } ]
      } ],
      "code": {
        "coding": [ {
          "system": "http://loinc.org",
          "code": "82810-3"
        } ],
        "text": "Pregnancy status"
      },
      "subject": {
        "reference": "Patient/51ad521ffefaa7f5e58cc4e58b89c4998404f7c6201609a2881d9c483bfeca68"
      },
      "encounter": {
        "reference": "Encounter/d4f3f361f77cd1a463c3ca6e9d61f589a3822a1e2a1ac2f7b65fe98e5cd351fa"
      },
      "_effectiveDateTime": {
        "extension": [ {
          "url": "http://hl7.org/fhir/StructureDefinition/data-absent-reason",
          "valueCode": "unknown"
        } ]
      },
      "valueCodeableConcept": {
        "coding": [ {
          "system": "http://loinc.org",
          "code": "LA26683-5"
        }, {
          "system": "http://snomed.info/sct",
          "code": "60001007"
        } ]
      }
    },
    "request": {
      "method": "POST",
      "url": "Observation",
      "ifNoneExist": "identifier=https://mein.krankenhaus.de/fhir/NamingSystem/observationId|c380eea7163b478b03b3eb00b0a7304d992cb0cee34ac4090850b8f5eb8993a5"
    }
  }, {
    "fullUrl": "Observation/922b118935314a529c6060189b67718a582817eb317e895ec6bde260c9f7fc6d",
    "resource": {
      "resourceType": "Observation",
      "meta": {
        "profile": [ "https://www.netzwerk-universitaetsmedizin.de/fhir/StructureDefinition/sex-assigned-at-birth" ]
      },
      "identifier": [ {
        "system": "https://mein.krankenhaus.de/fhir/NamingSystem/observationId",
        "value": "9853bec3214b010d23145c980d8591117d436df72005882a433b5822c94aab06"
      } ],
      "status": "final",
      "category": [ {
        "coding": [ {
          "system": "http://terminology.hl7.org/CodeSystem/observation-category",
          "code": "social-history",
          "display": "Social History"
        } ]
      } ],
      "code": {
        "coding": [ {
          "system": "http://loinc.org",
          "code": "76689-9"
        } ]
      },
      "subject": {
        "reference": "Patient/51ad521ffefaa7f5e58cc4e58b89c4998404f7c6201609a2881d9c483bfeca68"
      },
      "encounter": {
        "reference": "Encounter/d4f3f361f77cd1a463c3ca6e9d61f589a3822a1e2a1ac2f7b65fe98e5cd351fa"
      },
      "_effectiveDateTime": {
        "extension": [ {
          "url": "http://hl7.org/fhir/StructureDefinition/data-absent-reason",
          "valueCode": "unknown"
        } ]
      },
      "valueCodeableConcept": {
        "coding": [ {
          "system": "http://hl7.org/fhir/administrative-gender",
          "code": "female"
        } ]
      }
    },
    "request": {
      "method": "POST",
      "url": "Observation",
      "ifNoneExist": "identifier=https://mein.krankenhaus.de/fhir/NamingSystem/observationId|922b118935314a529c6060189b67718a582817eb317e895ec6bde260c9f7fc6d"
    }
  }, {
    "fullUrl": "Observation/b2892e812d55412f8247e250c212889597825954850494e696231a0b7fd16c94",
    "resource": {
      "resourceType": "Observation",
      "meta": {
        "profile": [ "https://www.netzwerk-universitaetsmedizin.de/fhir/StructureDefinition/frailty-score" ]
      },
      "identifier": [ {
        "type": {
          "coding": [ {
            "system": "http://terminology.hl7.org/CodeSystem/v2-0203",
            "code": "OBI",
            "display": "Observation Instance Identifier"
          } ]
        },
        "system": "https://mein.krankenhaus.de/fhir/NamingSystem/observationId",
        "value": "d5a732f2b7760f68d73e0eec7832333bb4b823f9a5be10cf63c3b3e7760b8961",
        "assigner": {
          "reference": "Organization/3a4f3433bce81181bad2d8e0b8fafccf7dc800bc06f29be73dcb38b750a48f9a"
        }
      } ],
      "status": "final",
      "category": [ {
        "coding": [ {
          "system": "http://terminology.hl7.org/CodeSystem/observation-category",
          "code": "survey",
          "display": "Survey"
        } ]
      } ],
      "code": {
        "coding": [ {
          "system": "http://snomed.info/sct",
          "code": "763264000"
        } ],
        "text": "Frailty Scale Score"
      },
      "subject": {
        "reference": "Patient/51ad521ffefaa7f5e58cc4e58b89c4998404f7c6201609a2881d9c483bfeca68"
      },
      "encounter": {
        "reference": "Encounter/d4f3f361f77cd1a463c3ca6e9d61f589a3822a1e2a1ac2f7b65fe98e5cd351fa"
      },
      "_effectiveDateTime": {
        "extension": [ {
          "url": "http://hl7.org/fhir/StructureDefinition/data-absent-reason",
          "valueCode": "unknown"
        } ]
      },
      "valueCodeableConcept": {
        "coding": [ {
          "system": "https://www.netzwerk-universitaetsmedizin.de/fhir/CodeSystem/frailty-score",
          "code": "5"
        } ]
      },
      "method": {
        "coding": [ {
          "system": "http://snomed.info/sct",
          "code": "445414007",
          "display": "Canadian Study of Health and Aging clinical frailty scale"
        } ]
      }
    },
    "request": {
      "method": "POST",
      "url": "Observation",
      "ifNoneExist": "identifier=https://mein.krankenhaus.de/fhir/NamingSystem/observationId|b2892e812d55412f8247e250c212889597825954850494e696231a0b7fd16c94"
    }
  }, {
    "fullUrl": "Observation/fea39242f91674725d7de61de7c289212d01a31a910a6f5bc31593277222d5f9",
    "resource": {
      "resourceType": "Observation",
      "meta": {
        "profile": [ "https://www.netzwerk-universitaetsmedizin.de/fhir/StructureDefinition/body-weight" ]
      },
      "identifier": [ {
        "type": {
          "coding": [ {
            "system": "http://terminology.hl7.org/CodeSystem/v2-0203",
            "code": "OBI",
            "display": "Observation Instance Identifier"
          } ]
        },
        "system": "https://mein.krankenhaus.de/fhir/NamingSystem/observationId",
        "value": "66968685926da7570fed271c2f4d2cc643d36ff49d8f5fecf08690e050a632c6",
        "assigner": {
          "reference": "Organization/3a4f3433bce81181bad2d8e0b8fafccf7dc800bc06f29be73dcb38b750a48f9a"
        }
      } ],
      "status": "final",
      "category": [ {
        "coding": [ {
          "system": "http://terminology.hl7.org/CodeSystem/observation-category",
          "code": "vital-signs",
          "display": "Vital Signs"
        } ]
      } ],
      "code": {
        "coding": [ {
          "system": "http://loinc.org",
          "code": "29463-7"
        }, {
          "system": "http://snomed.info/sct",
          "code": "27113001"
        } ],
        "text": "Body Weight"
      },
      "subject": {
        "reference": "Patient/51ad521ffefaa7f5e58cc4e58b89c4998404f7c6201609a2881d9c483bfeca68"
      },
      "encounter": {
        "reference": "Encounter/d4f3f361f77cd1a463c3ca6e9d61f589a3822a1e2a1ac2f7b65fe98e5cd351fa"
      },
      "_effectiveDateTime": {
        "extension": [ {
          "url": "http://hl7.org/fhir/StructureDefinition/data-absent-reason",
          "valueCode": "unknown"
        } ]
      },
      "valueQuantity": {
        "value": 60,
        "unit": "kilogram",
        "system": "http://unitsofmeasure.org",
        "code": "kg"
      }
    },
    "request": {
      "method": "POST",
      "url": "Observation",
      "ifNoneExist": "identifier=https://mein.krankenhaus.de/fhir/NamingSystem/observationId|fea39242f91674725d7de61de7c289212d01a31a910a6f5bc31593277222d5f9"
    }
  }, {
    "fullUrl": "Observation/6cf525c24ecee72cb10022ca1a787915ef0e50fedd97671d9e54479c13e3a339",
    "resource": {
      "resourceType": "Observation",
      "meta": {
        "profile": [ "https://www.netzwerk-universitaetsmedizin.de/fhir/StructureDefinition/body-height" ]
      },
      "identifier": [ {
        "type": {
          "coding": [ {
            "system": "http://terminology.hl7.org/CodeSystem/v2-0203",
            "code": "OBI",
            "display": "Observation Instance Identifier"
          } ]
        },
        "system": "https://mein.krankenhaus.de/fhir/NamingSystem/observationId",
        "value": "599e00c45ef0f4a017a6d0396651c4fba3b158518833bc0654272f227da5dc35",
        "assigner": {
          "reference": "Organization/3a4f3433bce81181bad2d8e0b8fafccf7dc800bc06f29be73dcb38b750a48f9a"
        }
      } ],
      "status": "final",
      "category": [ {
        "coding": [ {
          "system": "http://terminology.hl7.org/CodeSystem/observation-category",
          "code": "vital-signs",
          "display": "Vital Signs"
        } ]
      } ],
      "code": {
        "coding": [ {
          "system": "http://loinc.org",
          "code": "8302-2"
        }, {
          "system": "http://snomed.info/sct",
          "code": "50373000"
        } ],
        "text": "Body height"
      },
      "subject": {
        "reference": "Patient/51ad521ffefaa7f5e58cc4e58b89c4998404f7c6201609a2881d9c483bfeca68"
      },
      "encounter": {
        "reference": "Encounter/d4f3f361f77cd1a463c3ca6e9d61f589a3822a1e2a1ac2f7b65fe98e5cd351fa"
      },
      "_effectiveDateTime": {
        "extension": [ {
          "url": "http://hl7.org/fhir/StructureDefinition/data-absent-reason",
          "valueCode": "unknown"
        } ]
      },
      "valueQuantity": {
        "value": 178,
        "unit": "centimeter",
        "system": "http://unitsofmeasure.org",
        "code": "cm"
      }
    },
    "request": {
      "method": "POST",
      "url": "Observation",
      "ifNoneExist": "identifier=https://mein.krankenhaus.de/fhir/NamingSystem/observationId|6cf525c24ecee72cb10022ca1a787915ef0e50fedd97671d9e54479c13e3a339"
    }
  }, {
    "fullUrl": "Observation/a0582587e87284cb164985479893f8b913c12450d63d548d37234615d6464e41",
    "resource": {
      "resourceType": "Observation",
      "meta": {
        "profile": [ "https://www.netzwerk-universitaetsmedizin.de/fhir/StructureDefinition/known-exposure" ]
      },
      "identifier": [ {
        "type": {
          "coding": [ {
            "system": "http://terminology.hl7.org/CodeSystem/v2-0203",
            "code": "OBI",
            "display": "Observation Instance Identifier"
          } ]
        },
        "system": "https://mein.krankenhaus.de/fhir/NamingSystem/observationId",
        "value": "6bbe2b10c2539e5cc54ef43fdcf3864465cd636566e62f9ebfe083904e5f53d8",
        "assigner": {
          "reference": "Organization/3a4f3433bce81181bad2d8e0b8fafccf7dc800bc06f29be73dcb38b750a48f9a"
        }
      } ],
      "status": "final",
      "category": [ {
        "coding": [ {
          "system": "http://terminology.hl7.org/CodeSystem/observation-category",
          "code": "social-history",
          "display": "Social History"
        } ]
      } ],
      "code": {
        "coding": [ {
          "system": "http://loinc.org",
          "code": "88636-6"
        } ],
        "text": "Known exposure"
      },
      "subject": {
        "reference": "Patient/51ad521ffefaa7f5e58cc4e58b89c4998404f7c6201609a2881d9c483bfeca68"
      },
      "encounter": {
        "reference": "Encounter/d4f3f361f77cd1a463c3ca6e9d61f589a3822a1e2a1ac2f7b65fe98e5cd351fa"
      },
      "_effectiveDateTime": {
        "extension": [ {
          "url": "http://hl7.org/fhir/StructureDefinition/data-absent-reason",
          "valueCode": "unknown"
        } ]
      },
      "valueCodeableConcept": {
        "coding": [ {
          "system": "http://snomed.info/sct",
          "code": "373067005"
        } ]
      }
    },
    "request": {
      "method": "POST",
      "url": "Observation",
      "ifNoneExist": "identifier=https://mein.krankenhaus.de/fhir/NamingSystem/observationId|a0582587e87284cb164985479893f8b913c12450d63d548d37234615d6464e41"
    }
  }, {
    "fullUrl": "Condition/2b5f87427ace217a233a96c980828947c69eef3046ad6375edf4f305797e40d2",
    "resource": {
      "resourceType": "Condition",
      "meta": {
        "profile": [ "https://www.netzwerk-universitaetsmedizin.de/fhir/StructureDefinition/complications-covid-19" ]
      },
      "identifier": [ {
        "system": "https://mein.krankenhaus.de/fhir/NamingSystem/conditionId",
        "value": "84e1b4e63d56023b205d12466629ae804304c30c49724fcbda1e384064d19b5c"
      } ],
      "verificationStatus": {
        "coding": [ {
          "system": "http://terminology.hl7.org/CodeSystem/condition-ver-status",
          "code": "refuted",
          "display": "Refuted"
        }, {
          "system": "http://snomed.info/sct",
          "code": "410594000",
          "display": "Definitely NOT present (qualifier value)"
        } ]
      },
      "category": [ {
        "coding": [ {
          "system": "http://snomed.info/sct",
          "code": "116223007"
        } ]
      } ],
      "code": {
        "coding": [ {
          "system": "http://fhir.de/CodeSystem/dimdi/icd-10-gm",
          "version": "2021",
          "code": "I82.9"
        }, {
          "system": "http://snomed.info/sct",
          "code": "371039008"
        } ]
      },
      "subject": {
        "reference": "Patient/51ad521ffefaa7f5e58cc4e58b89c4998404f7c6201609a2881d9c483bfeca68"
      },
      "encounter": {
        "reference": "Encounter/d4f3f361f77cd1a463c3ca6e9d61f589a3822a1e2a1ac2f7b65fe98e5cd351fa"
      },
      "_recordedDate": {
        "extension": [ {
          "url": "http://hl7.org/fhir/StructureDefinition/data-absent-reason",
          "valueCode": "unknown"
        } ]
      }
    },
    "request": {
      "method": "POST",
      "url": "Condition",
      "ifNoneExist": "identifier=https://mein.krankenhaus.de/fhir/NamingSystem/conditionId|2b5f87427ace217a233a96c980828947c69eef3046ad6375edf4f305797e40d2"
    }
  }, {
    "fullUrl": "Condition/6b5d5383e844b94e63e315dad9a7526cd75c113ff7dbe0b43e91f99b08b3d881",
    "resource": {
      "resourceType": "Condition",
      "meta": {
        "profile": [ "https://www.netzwerk-universitaetsmedizin.de/fhir/StructureDefinition/complications-covid-19" ]
      },
      "identifier": [ {
        "system": "https://mein.krankenhaus.de/fhir/NamingSystem/conditionId",
        "value": "26b9c468f78535708ccd32545ae49665116bcb76cdde62b7fc59925d0dd856fa"
      } ],
      "verificationStatus": {
        "coding": [ {
          "system": "http://terminology.hl7.org/CodeSystem/condition-ver-status",
          "code": "refuted",
          "display": "Refuted"
        }, {
          "system": "http://snomed.info/sct",
          "code": "410594000",
          "display": "Definitely NOT present (qualifier value)"
        } ]
      },
      "category": [ {
        "coding": [ {
          "system": "http://snomed.info/sct",
          "code": "116223007"
        } ]
      } ],
      "code": {
        "coding": [ {
          "system": "http://fhir.de/CodeSystem/dimdi/icd-10-gm",
          "version": "2021",
          "code": "J18.9"
        }, {
          "system": "http://snomed.info/sct",
          "code": "128601007"
        } ]
      },
      "subject": {
        "reference": "Patient/51ad521ffefaa7f5e58cc4e58b89c4998404f7c6201609a2881d9c483bfeca68"
      },
      "encounter": {
        "reference": "Encounter/d4f3f361f77cd1a463c3ca6e9d61f589a3822a1e2a1ac2f7b65fe98e5cd351fa"
      },
      "_recordedDate": {
        "extension": [ {
          "url": "http://hl7.org/fhir/StructureDefinition/data-absent-reason",
          "valueCode": "unknown"
        } ]
      }
    },
    "request": {
      "method": "POST",
      "url": "Condition",
      "ifNoneExist": "identifier=https://mein.krankenhaus.de/fhir/NamingSystem/conditionId|6b5d5383e844b94e63e315dad9a7526cd75c113ff7dbe0b43e91f99b08b3d881"
    }
  }, {
    "fullUrl": "Condition/e504df45975554f780493c775503421a1a02fe4f56d4ab7f815433f1c44011e2",
    "resource": {
      "resourceType": "Condition",
      "meta": {
        "profile": [ "https://www.netzwerk-universitaetsmedizin.de/fhir/StructureDefinition/complications-covid-19" ]
      },
      "modifierExtension": [ {
        "url": "https://www.netzwerk-universitaetsmedizin.de/fhir/StructureDefinition/uncertainty-of-presence",
        "valueCodeableConcept": {
          "coding": [ {
            "system": "http://snomed.info/sct",
            "code": "261665006",
            "display": "Unknown (qualifier value)"
          } ],
          "text": "Presence unknown."
        }
      } ],
      "identifier": [ {
        "system": "https://mein.krankenhaus.de/fhir/NamingSystem/conditionId",
        "value": "ee37b45bb97368a7195235e733bebf17244d280636b8f50574e0577c527e28cd"
      } ],
      "category": [ {
        "coding": [ {
          "system": "http://snomed.info/sct",
          "code": "116223007"
        } ]
      } ],
      "code": {
        "coding": [ {
          "system": "http://fhir.de/CodeSystem/dimdi/icd-10-gm",
          "version": "2021",
          "code": "A41.9"
        }, {
          "system": "http://snomed.info/sct",
          "code": "434156008"
        } ]
      },
      "subject": {
        "reference": "Patient/51ad521ffefaa7f5e58cc4e58b89c4998404f7c6201609a2881d9c483bfeca68"
      },
      "encounter": {
        "reference": "Encounter/d4f3f361f77cd1a463c3ca6e9d61f589a3822a1e2a1ac2f7b65fe98e5cd351fa"
      },
      "_recordedDate": {
        "extension": [ {
          "url": "http://hl7.org/fhir/StructureDefinition/data-absent-reason",
          "valueCode": "unknown"
        } ]
      }
    },
    "request": {
      "method": "POST",
      "url": "Condition",
      "ifNoneExist": "identifier=https://mein.krankenhaus.de/fhir/NamingSystem/conditionId|e504df45975554f780493c775503421a1a02fe4f56d4ab7f815433f1c44011e2"
    }
  }, {
    "fullUrl": "Condition/40a7fc24544726c13153eae0d6527144b24c81c28ed68665726b149dd6375e7d",
    "resource": {
      "resourceType": "Condition",
      "meta": {
        "profile": [ "https://www.netzwerk-universitaetsmedizin.de/fhir/StructureDefinition/symptoms-covid-19" ]
      },
      "identifier": [ {
        "system": "https://mein.krankenhaus.de/fhir/NamingSystem/conditionId",
        "value": "8c9467b4dc149181d69c36ccb07b46b161165851824a633951fc6c49ebc3d2e3"
      } ],
      "clinicalStatus": {
        "coding": [ {
          "system": "http://terminology.hl7.org/CodeSystem/condition-clinical",
          "code": "active",
          "display": "Active"
        } ]
      },
      "verificationStatus": {
        "coding": [ {
          "system": "http://terminology.hl7.org/CodeSystem/condition-ver-status",
          "code": "refuted",
          "display": "Refuted"
        }, {
          "system": "http://snomed.info/sct",
          "code": "410594000",
          "display": "Definitely NOT present (qualifier value)"
        } ]
      },
      "category": [ {
        "coding": [ {
          "system": "http://loinc.org",
          "code": "75325-1"
        } ]
      } ],
      "code": {
        "coding": [ {
          "system": "http://snomed.info/sct",
          "code": "21522001"
        } ]
      },
      "subject": {
        "reference": "Patient/51ad521ffefaa7f5e58cc4e58b89c4998404f7c6201609a2881d9c483bfeca68"
      },
      "encounter": {
        "reference": "Encounter/d4f3f361f77cd1a463c3ca6e9d61f589a3822a1e2a1ac2f7b65fe98e5cd351fa"
      },
      "_recordedDate": {
        "extension": [ {
          "url": "http://hl7.org/fhir/StructureDefinition/data-absent-reason",
          "valueCode": "unknown"
        } ]
      }
    },
    "request": {
      "method": "POST",
      "url": "Condition",
      "ifNoneExist": "identifier=https://mein.krankenhaus.de/fhir/NamingSystem/conditionId|40a7fc24544726c13153eae0d6527144b24c81c28ed68665726b149dd6375e7d"
    }
  }, {
    "fullUrl": "Condition/8e45da25dd0fbdbf5e8a885209f64d105618a56e035e5bc4623b2b02fa53c228",
    "resource": {
      "resourceType": "Condition",
      "meta": {
        "profile": [ "https://www.netzwerk-universitaetsmedizin.de/fhir/StructureDefinition/symptoms-covid-19" ]
      },
      "modifierExtension": [ {
        "url": "https://www.netzwerk-universitaetsmedizin.de/fhir/StructureDefinition/uncertainty-of-presence",
        "valueCodeableConcept": {
          "coding": [ {
            "system": "http://snomed.info/sct",
            "code": "261665006",
            "display": "Unknown (qualifier value)"
          } ],
          "text": "Presence unknown."
        }
      } ],
      "identifier": [ {
        "system": "https://mein.krankenhaus.de/fhir/NamingSystem/conditionId",
        "value": "5018b7be55c39a2a0bd73df1c3fa5fc1fd966069d88d7c4fcf1f263df8aa8568"
      } ],
      "clinicalStatus": {
        "coding": [ {
          "system": "http://terminology.hl7.org/CodeSystem/condition-clinical",
          "code": "active",
          "display": "Active"
        } ]
      },
      "category": [ {
        "coding": [ {
          "system": "http://loinc.org",
          "code": "75325-1"
        } ]
      } ],
      "code": {
        "coding": [ {
          "system": "http://snomed.info/sct",
          "code": "40917007"
        } ]
      },
      "subject": {
        "reference": "Patient/51ad521ffefaa7f5e58cc4e58b89c4998404f7c6201609a2881d9c483bfeca68"
      },
      "encounter": {
        "reference": "Encounter/d4f3f361f77cd1a463c3ca6e9d61f589a3822a1e2a1ac2f7b65fe98e5cd351fa"
      },
      "_recordedDate": {
        "extension": [ {
          "url": "http://hl7.org/fhir/StructureDefinition/data-absent-reason",
          "valueCode": "unknown"
        } ]
      }
    },
    "request": {
      "method": "POST",
      "url": "Condition",
      "ifNoneExist": "identifier=https://mein.krankenhaus.de/fhir/NamingSystem/conditionId|8e45da25dd0fbdbf5e8a885209f64d105618a56e035e5bc4623b2b02fa53c228"
    }
  }, {
    "fullUrl": "Condition/4b89019729bb4f02b397a2cc1976b6b2dfe73e0f48dcdbe3292effec6a008c52",
    "resource": {
      "resourceType": "Condition",
      "meta": {
        "profile": [ "https://www.netzwerk-universitaetsmedizin.de/fhir/StructureDefinition/symptoms-covid-19" ]
      },
      "identifier": [ {
        "system": "https://mein.krankenhaus.de/fhir/NamingSystem/conditionId",
        "value": "0c238c8624d00985c0f77430f070f6bafead816864189c50dee55641ccf59e98"
      } ],
      "clinicalStatus": {
        "coding": [ {
          "system": "http://terminology.hl7.org/CodeSystem/condition-clinical",
          "code": "active",
          "display": "Active"
        } ]
      },
      "verificationStatus": {
        "coding": [ {
          "system": "http://terminology.hl7.org/CodeSystem/condition-ver-status",
          "code": "confirmed",
          "display": "Confirmed"
        }, {
          "system": "http://snomed.info/sct",
          "code": "410605003",
          "display": "Confirmed present (qualifier value)"
        } ]
      },
      "category": [ {
        "coding": [ {
          "system": "http://loinc.org",
          "code": "75325-1"
        } ]
      } ],
      "severity": {
        "coding": [ {
          "system": "http://snomed.info/sct",
          "code": "255604002"
        } ]
      },
      "code": {
        "coding": [ {
          "system": "http://snomed.info/sct",
          "code": "62315008"
        } ]
      },
      "subject": {
        "reference": "Patient/51ad521ffefaa7f5e58cc4e58b89c4998404f7c6201609a2881d9c483bfeca68"
      },
      "encounter": {
        "reference": "Encounter/d4f3f361f77cd1a463c3ca6e9d61f589a3822a1e2a1ac2f7b65fe98e5cd351fa"
      },
      "_recordedDate": {
        "extension": [ {
          "url": "http://hl7.org/fhir/StructureDefinition/data-absent-reason",
          "valueCode": "unknown"
        } ]
      }
    },
    "request": {
      "method": "POST",
      "url": "Condition",
      "ifNoneExist": "identifier=https://mein.krankenhaus.de/fhir/NamingSystem/conditionId|4b89019729bb4f02b397a2cc1976b6b2dfe73e0f48dcdbe3292effec6a008c52"
    }
  }, {
    "fullUrl": "Condition/016f5ae3faa7fe04bcf82d1c4be9f80947c172ce32ed79836cbcd3abd33faf87",
    "resource": {
      "resourceType": "Condition",
      "meta": {
        "profile": [ "https://www.netzwerk-universitaetsmedizin.de/fhir/StructureDefinition/symptoms-covid-19" ]
      },
      "modifierExtension": [ {
        "url": "https://www.netzwerk-universitaetsmedizin.de/fhir/StructureDefinition/uncertainty-of-presence",
        "valueCodeableConcept": {
          "coding": [ {
            "system": "http://snomed.info/sct",
            "code": "261665006",
            "display": "Unknown (qualifier value)"
          } ],
          "text": "Presence unknown."
        }
      } ],
      "identifier": [ {
        "system": "https://mein.krankenhaus.de/fhir/NamingSystem/conditionId",
        "value": "b4ebfb9f0450b6b3b1d3196391982321956df3c3bdb081638ee01c57d449166d"
      } ],
      "clinicalStatus": {
        "coding": [ {
          "system": "http://terminology.hl7.org/CodeSystem/condition-clinical",
          "code": "active",
          "display": "Active"
        } ]
      },
      "category": [ {
        "coding": [ {
          "system": "http://loinc.org",
          "code": "75325-1"
        } ]
      } ],
      "code": {
        "coding": [ {
          "system": "http://snomed.info/sct",
          "code": "422400008"
        } ]
      },
      "subject": {
        "reference": "Patient/51ad521ffefaa7f5e58cc4e58b89c4998404f7c6201609a2881d9c483bfeca68"
      },
      "encounter": {
        "reference": "Encounter/d4f3f361f77cd1a463c3ca6e9d61f589a3822a1e2a1ac2f7b65fe98e5cd351fa"
      },
      "_recordedDate": {
        "extension": [ {
          "url": "http://hl7.org/fhir/StructureDefinition/data-absent-reason",
          "valueCode": "unknown"
        } ]
      }
    },
    "request": {
      "method": "POST",
      "url": "Condition",
      "ifNoneExist": "identifier=https://mein.krankenhaus.de/fhir/NamingSystem/conditionId|016f5ae3faa7fe04bcf82d1c4be9f80947c172ce32ed79836cbcd3abd33faf87"
    }
  }, {
    "fullUrl": "Condition/4c93523032ed2e89da99995a2bad6cecfefcdc7c8ed9dea466ffc1f4fe79e386",
    "resource": {
      "resourceType": "Condition",
      "meta": {
        "profile": [ "https://www.netzwerk-universitaetsmedizin.de/fhir/StructureDefinition/symptoms-covid-19" ]
      },
      "identifier": [ {
        "system": "https://mein.krankenhaus.de/fhir/NamingSystem/conditionId",
        "value": "d27c74e99523628ba66048f804b164f85aa798ebfb054ed5493e32eea44f29a9"
      } ],
      "clinicalStatus": {
        "coding": [ {
          "system": "http://terminology.hl7.org/CodeSystem/condition-clinical",
          "code": "active",
          "display": "Active"
        } ]
      },
      "verificationStatus": {
        "coding": [ {
          "system": "http://terminology.hl7.org/CodeSystem/condition-ver-status",
          "code": "refuted",
          "display": "Refuted"
        }, {
          "system": "http://snomed.info/sct",
          "code": "410594000",
          "display": "Definitely NOT present (qualifier value)"
        } ]
      },
      "category": [ {
        "coding": [ {
          "system": "http://loinc.org",
          "code": "75325-1"
        } ]
      } ],
      "code": {
        "coding": [ {
          "system": "http://snomed.info/sct",
          "code": "49727002"
        } ]
      },
      "subject": {
        "reference": "Patient/51ad521ffefaa7f5e58cc4e58b89c4998404f7c6201609a2881d9c483bfeca68"
      },
      "encounter": {
        "reference": "Encounter/d4f3f361f77cd1a463c3ca6e9d61f589a3822a1e2a1ac2f7b65fe98e5cd351fa"
      },
      "_recordedDate": {
        "extension": [ {
          "url": "http://hl7.org/fhir/StructureDefinition/data-absent-reason",
          "valueCode": "unknown"
        } ]
      }
    },
    "request": {
      "method": "POST",
      "url": "Condition",
      "ifNoneExist": "identifier=https://mein.krankenhaus.de/fhir/NamingSystem/conditionId|4c93523032ed2e89da99995a2bad6cecfefcdc7c8ed9dea466ffc1f4fe79e386"
    }
  }, {
    "fullUrl": "Condition/78cbf163340abc5f1dd17ac2f278527fb59029e78b5770ab9e7e3cbe3828ba39",
    "resource": {
      "resourceType": "Condition",
      "meta": {
        "profile": [ "https://www.netzwerk-universitaetsmedizin.de/fhir/StructureDefinition/symptoms-covid-19" ]
      },
      "identifier": [ {
        "system": "https://mein.krankenhaus.de/fhir/NamingSystem/conditionId",
        "value": "e3cfe6c62db72cff7b7c44ad5b4f36e270fe4f1f66576b5cb3ac284ca25eb835"
      } ],
      "clinicalStatus": {
        "coding": [ {
          "system": "http://terminology.hl7.org/CodeSystem/condition-clinical",
          "code": "active",
          "display": "Active"
        } ]
      },
      "verificationStatus": {
        "coding": [ {
          "system": "http://terminology.hl7.org/CodeSystem/condition-ver-status",
          "code": "refuted",
          "display": "Refuted"
        }, {
          "system": "http://snomed.info/sct",
          "code": "410594000",
          "display": "Definitely NOT present (qualifier value)"
        } ]
      },
      "category": [ {
        "coding": [ {
          "system": "http://loinc.org",
          "code": "75325-1"
        } ]
      } ],
      "code": {
        "coding": [ {
          "system": "http://snomed.info/sct",
          "code": "267036007"
        } ]
      },
      "subject": {
        "reference": "Patient/51ad521ffefaa7f5e58cc4e58b89c4998404f7c6201609a2881d9c483bfeca68"
      },
      "encounter": {
        "reference": "Encounter/d4f3f361f77cd1a463c3ca6e9d61f589a3822a1e2a1ac2f7b65fe98e5cd351fa"
      },
      "_recordedDate": {
        "extension": [ {
          "url": "http://hl7.org/fhir/StructureDefinition/data-absent-reason",
          "valueCode": "unknown"
        } ]
      }
    },
    "request": {
      "method": "POST",
      "url": "Condition",
      "ifNoneExist": "identifier=https://mein.krankenhaus.de/fhir/NamingSystem/conditionId|78cbf163340abc5f1dd17ac2f278527fb59029e78b5770ab9e7e3cbe3828ba39"
    }
  }, {
    "fullUrl": "Condition/ea66902a9f94cd4ff0550ba10e1fafb7f94793da5e5c4d9169a42b2a8a5897f0",
    "resource": {
      "resourceType": "Condition",
      "meta": {
        "profile": [ "https://www.netzwerk-universitaetsmedizin.de/fhir/StructureDefinition/symptoms-covid-19" ]
      },
      "identifier": [ {
        "system": "https://mein.krankenhaus.de/fhir/NamingSystem/conditionId",
        "value": "120184a1c257c0e114aa34819497ee73ec7cce1d51077f44405001a21ce9eb6d"
      } ],
      "clinicalStatus": {
        "coding": [ {
          "system": "http://terminology.hl7.org/CodeSystem/condition-clinical",
          "code": "active",
          "display": "Active"
        } ]
      },
      "verificationStatus": {
        "coding": [ {
          "system": "http://terminology.hl7.org/CodeSystem/condition-ver-status",
          "code": "confirmed",
          "display": "Confirmed"
        }, {
          "system": "http://snomed.info/sct",
          "code": "410605003",
          "display": "Confirmed present (qualifier value)"
        } ]
      },
      "category": [ {
        "coding": [ {
          "system": "http://loinc.org",
          "code": "75325-1"
        } ]
      } ],
      "severity": {
        "coding": [ {
          "system": "http://snomed.info/sct",
          "code": "6736007"
        } ]
      },
      "code": {
        "coding": [ {
          "system": "http://snomed.info/sct",
          "code": "422587007"
        } ]
      },
      "subject": {
        "reference": "Patient/51ad521ffefaa7f5e58cc4e58b89c4998404f7c6201609a2881d9c483bfeca68"
      },
      "encounter": {
        "reference": "Encounter/d4f3f361f77cd1a463c3ca6e9d61f589a3822a1e2a1ac2f7b65fe98e5cd351fa"
      },
      "_recordedDate": {
        "extension": [ {
          "url": "http://hl7.org/fhir/StructureDefinition/data-absent-reason",
          "valueCode": "unknown"
        } ]
      }
    },
    "request": {
      "method": "POST",
      "url": "Condition",
      "ifNoneExist": "identifier=https://mein.krankenhaus.de/fhir/NamingSystem/conditionId|ea66902a9f94cd4ff0550ba10e1fafb7f94793da5e5c4d9169a42b2a8a5897f0"
    }
  }, {
    "fullUrl": "Condition/3edb52334fb9f7e534380e59accc94d317b240c568cd7ffe1e62e3d5a89e8e02",
    "resource": {
      "resourceType": "Condition",
      "meta": {
        "profile": [ "https://www.netzwerk-universitaetsmedizin.de/fhir/StructureDefinition/symptoms-covid-19" ]
      },
      "identifier": [ {
        "system": "https://mein.krankenhaus.de/fhir/NamingSystem/conditionId",
        "value": "60a8c5f8b5016208ff57b443869ef77b031d9d92be7f45590516703ca445a7a6"
      } ],
      "clinicalStatus": {
        "coding": [ {
          "system": "http://terminology.hl7.org/CodeSystem/condition-clinical",
          "code": "active",
          "display": "Active"
        } ]
      },
      "verificationStatus": {
        "coding": [ {
          "system": "http://terminology.hl7.org/CodeSystem/condition-ver-status",
          "code": "confirmed",
          "display": "Confirmed"
        }, {
          "system": "http://snomed.info/sct",
          "code": "410605003",
          "display": "Confirmed present (qualifier value)"
        } ]
      },
      "category": [ {
        "coding": [ {
          "system": "http://loinc.org",
          "code": "75325-1"
        } ]
      } ],
      "severity": {
        "coding": [ {
          "system": "http://snomed.info/sct",
          "code": "442452003"
        } ]
      },
      "code": {
        "coding": [ {
          "system": "http://snomed.info/sct",
          "code": "426000000"
        } ]
      },
      "subject": {
        "reference": "Patient/51ad521ffefaa7f5e58cc4e58b89c4998404f7c6201609a2881d9c483bfeca68"
      },
      "encounter": {
        "reference": "Encounter/d4f3f361f77cd1a463c3ca6e9d61f589a3822a1e2a1ac2f7b65fe98e5cd351fa"
      },
      "_recordedDate": {
        "extension": [ {
          "url": "http://hl7.org/fhir/StructureDefinition/data-absent-reason",
          "valueCode": "unknown"
        } ]
      }
    },
    "request": {
      "method": "POST",
      "url": "Condition",
      "ifNoneExist": "identifier=https://mein.krankenhaus.de/fhir/NamingSystem/conditionId|3edb52334fb9f7e534380e59accc94d317b240c568cd7ffe1e62e3d5a89e8e02"
    }
  }, {
    "fullUrl": "Condition/be11aaab62e7790ab65999fd1415fb33ee1d23a88d43c6696b30b13cf48d4cf8",
    "resource": {
      "resourceType": "Condition",
      "meta": {
        "profile": [ "https://www.netzwerk-universitaetsmedizin.de/fhir/StructureDefinition/symptoms-covid-19" ]
      },
      "identifier": [ {
        "system": "https://mein.krankenhaus.de/fhir/NamingSystem/conditionId",
        "value": "7e2875f5da5b41d853eeeac416023a92a1b7436cae1b5ab0c641cf0d830423b2"
      } ],
      "clinicalStatus": {
        "coding": [ {
          "system": "http://terminology.hl7.org/CodeSystem/condition-clinical",
          "code": "active",
          "display": "Active"
        } ]
      },
      "verificationStatus": {
        "coding": [ {
          "system": "http://terminology.hl7.org/CodeSystem/condition-ver-status",
          "code": "confirmed",
          "display": "Confirmed"
        }, {
          "system": "http://snomed.info/sct",
          "code": "410605003",
          "display": "Confirmed present (qualifier value)"
        } ]
      },
      "category": [ {
        "coding": [ {
          "system": "http://loinc.org",
          "code": "75325-1"
        } ]
      } ],
      "severity": {
        "coding": [ {
          "system": "http://snomed.info/sct",
          "code": "24484000"
        } ]
      },
      "code": {
        "coding": [ {
          "system": "http://snomed.info/sct",
          "code": "25064002"
        } ]
      },
      "subject": {
        "reference": "Patient/51ad521ffefaa7f5e58cc4e58b89c4998404f7c6201609a2881d9c483bfeca68"
      },
      "encounter": {
        "reference": "Encounter/d4f3f361f77cd1a463c3ca6e9d61f589a3822a1e2a1ac2f7b65fe98e5cd351fa"
      },
      "_recordedDate": {
        "extension": [ {
          "url": "http://hl7.org/fhir/StructureDefinition/data-absent-reason",
          "valueCode": "unknown"
        } ]
      }
    },
    "request": {
      "method": "POST",
      "url": "Condition",
      "ifNoneExist": "identifier=https://mein.krankenhaus.de/fhir/NamingSystem/conditionId|be11aaab62e7790ab65999fd1415fb33ee1d23a88d43c6696b30b13cf48d4cf8"
    }
  }, {
    "fullUrl": "Procedure/dcf4f81ec59253dc52318c058ad366c02d6a2d0555e68acf2e54fb6d7c5b12df",
    "resource": {
      "resourceType": "Procedure",
      "meta": {
        "profile": [ "https://www.netzwerk-universitaetsmedizin.de/fhir/StructureDefinition/dialysis" ]
      },
      "identifier": [ {
        "system": "https://mein.krankenhaus.de/fhir/NamingSystem/procedureId",
        "value": "da4599e82461a15bfe44f977b3dd8d6cf6030c4af5f746deedc16ff164d998d8"
      } ],
      "status": "in-progress",
      "category": {
        "coding": [ {
          "system": "http://snomed.info/sct",
          "code": "277132007",
          "display": "Therapeutic procedure (procedure)"
        } ]
      },
      "code": {
        "coding": [ {
          "system": "http://snomed.info/sct",
          "code": "108241001"
        } ],
        "text": "Dialysis"
      },
      "subject": {
        "reference": "Patient/51ad521ffefaa7f5e58cc4e58b89c4998404f7c6201609a2881d9c483bfeca68"
      },
      "encounter": {
        "reference": "Encounter/d4f3f361f77cd1a463c3ca6e9d61f589a3822a1e2a1ac2f7b65fe98e5cd351fa"
      },
      "_performedDateTime": {
        "extension": [ {
          "url": "http://hl7.org/fhir/StructureDefinition/data-absent-reason",
          "valueCode": "unknown"
        } ]
      }
    },
    "request": {
      "method": "POST",
      "url": "Procedure",
      "ifNoneExist": "identifier=https://mein.krankenhaus.de/fhir/NamingSystem/procedureId|dcf4f81ec59253dc52318c058ad366c02d6a2d0555e68acf2e54fb6d7c5b12df"
    }
  }, {
    "fullUrl": "Procedure/6b998bb8c72202aa78fca5617030fa250790960b4a297ba611222177563ea501",
    "resource": {
      "resourceType": "Procedure",
      "meta": {
        "profile": [ "https://www.netzwerk-universitaetsmedizin.de/fhir/StructureDefinition/apheresis" ]
      },
      "identifier": [ {
        "system": "https://mein.krankenhaus.de/fhir/NamingSystem/procedureId",
        "value": "a74f894b9a18eff4f4e6b0c17857dd7aab90aeac6037eb16e4da5ab77439dee8"
      } ],
      "status": "in-progress",
      "category": {
        "coding": [ {
          "system": "http://snomed.info/sct",
          "code": "277132007",
          "display": "Therapeutic procedure (procedure)"
        } ]
      },
      "code": {
        "coding": [ {
          "system": "http://snomed.info/sct",
          "code": "127788007"
        } ],
        "text": "Apheresis"
      },
      "subject": {
        "reference": "Patient/51ad521ffefaa7f5e58cc4e58b89c4998404f7c6201609a2881d9c483bfeca68"
      },
      "encounter": {
        "reference": "Encounter/d4f3f361f77cd1a463c3ca6e9d61f589a3822a1e2a1ac2f7b65fe98e5cd351fa"
      },
      "_performedDateTime": {
        "extension": [ {
          "url": "http://hl7.org/fhir/StructureDefinition/data-absent-reason",
          "valueCode": "unknown"
        } ]
      }
    },
    "request": {
      "method": "POST",
      "url": "Procedure",
      "ifNoneExist": "identifier=https://mein.krankenhaus.de/fhir/NamingSystem/procedureId|6b998bb8c72202aa78fca5617030fa250790960b4a297ba611222177563ea501"
    }
  }, {
    "fullUrl": "Procedure/fe077284733f2b5a6ea5c850450b5cb1b0628ac6034c2663ba6b9141615e9eac",
    "resource": {
      "resourceType": "Procedure",
      "meta": {
        "profile": [ "https://www.netzwerk-universitaetsmedizin.de/fhir/StructureDefinition/prone-position" ]
      },
      "identifier": [ {
        "system": "https://mein.krankenhaus.de/fhir/NamingSystem/procedureId",
        "value": "df251c4a9c5f0a687c47eb6a86d253546dabd5e9f2b7df55ad2f7377a5dc28ad"
      } ],
      "status": "unknown",
      "category": {
        "coding": [ {
          "system": "http://snomed.info/sct",
          "code": "225287004",
          "display": "Procedures relating to positioning and support (procedure)"
        } ]
      },
      "code": {
        "coding": [ {
          "system": "http://snomed.info/sct",
          "code": "431182000"
        } ],
        "text": "Prone position"
      },
      "subject": {
        "reference": "Patient/51ad521ffefaa7f5e58cc4e58b89c4998404f7c6201609a2881d9c483bfeca68"
      },
      "encounter": {
        "reference": "Encounter/d4f3f361f77cd1a463c3ca6e9d61f589a3822a1e2a1ac2f7b65fe98e5cd351fa"
      },
      "_performedDateTime": {
        "extension": [ {
          "url": "http://hl7.org/fhir/StructureDefinition/data-absent-reason",
          "valueCode": "unknown"
        } ]
      }
    },
    "request": {
      "method": "POST",
      "url": "Procedure",
      "ifNoneExist": "identifier=https://mein.krankenhaus.de/fhir/NamingSystem/procedureId|fe077284733f2b5a6ea5c850450b5cb1b0628ac6034c2663ba6b9141615e9eac"
    }
  }, {
    "fullUrl": "Procedure/113a6c9e27739dadbc6e6ec6f95efcbad8c2b3b6920c58cd9e1ade6b5d2f2ff0",
    "resource": {
      "resourceType": "Procedure",
      "meta": {
        "profile": [ "https://www.netzwerk-universitaetsmedizin.de/fhir/StructureDefinition/respiratory-therapies" ]
      },
      "identifier": [ {
        "system": "https://mein.krankenhaus.de/fhir/NamingSystem/procedureId",
        "value": "3ff0c15226b409443c77fa66c68269c9d8264e414dd054a2d36e514523332d1b"
      } ],
      "status": "in-progress",
      "category": {
        "coding": [ {
          "system": "http://snomed.info/sct",
          "code": "277132007",
          "display": "Therapeutic procedure (procedure)"
        } ]
      },
      "code": {
        "coding": [ {
          "system": "http://snomed.info/sct",
          "code": "371907003:425391005=426854004"
        } ]
      },
      "subject": {
        "reference": "Patient/51ad521ffefaa7f5e58cc4e58b89c4998404f7c6201609a2881d9c483bfeca68"
      },
      "encounter": {
        "reference": "Encounter/d4f3f361f77cd1a463c3ca6e9d61f589a3822a1e2a1ac2f7b65fe98e5cd351fa"
      },
      "_performedDateTime": {
        "extension": [ {
          "url": "http://hl7.org/fhir/StructureDefinition/data-absent-reason",
          "valueCode": "unknown"
        } ]
      },
      "usedCode": [ {
        "coding": [ {
          "system": "http://snomed.info/sct",
          "code": "426854004"
        } ]
      } ]
    },
    "request": {
      "method": "POST",
      "url": "Procedure",
      "ifNoneExist": "identifier=https://mein.krankenhaus.de/fhir/NamingSystem/procedureId|113a6c9e27739dadbc6e6ec6f95efcbad8c2b3b6920c58cd9e1ade6b5d2f2ff0"
    }
  }, {
    "fullUrl": "Observation/d177fd6ccdb03af04a8980df03ea71e48a84f7a1eb87f2a7a5c9581668a05fff",
    "resource": {
      "resourceType": "Observation",
      "meta": {
        "profile": [ "https://www.netzwerk-universitaetsmedizin.de/fhir/StructureDefinition/patient-in-icu" ]
      },
      "identifier": [ {
        "system": "https://mein.krankenhaus.de/fhir/NamingSystem/observationId",
        "value": "629f3df19f50743b1068f38c750a8d473a062e28488bb22dc4083add02e63453"
      } ],
      "status": "final",
      "category": [ {
        "coding": [ {
          "system": "http://terminology.hl7.org/CodeSystem/observation-category",
          "code": "survey",
          "display": "Survey"
        } ]
      } ],
      "code": {
        "coding": [ {
          "system": "https://www.netzwerk-universitaetsmedizin.de/fhir/CodeSystem/ecrf-parameter-codes",
          "code": "01",
          "display": "Is the patient in the intensive care unit?"
        } ]
      },
      "subject": {
        "reference": "Patient/51ad521ffefaa7f5e58cc4e58b89c4998404f7c6201609a2881d9c483bfeca68"
      },
      "encounter": {
        "reference": "Encounter/d4f3f361f77cd1a463c3ca6e9d61f589a3822a1e2a1ac2f7b65fe98e5cd351fa"
      },
      "_effectiveDateTime": {
        "extension": [ {
          "url": "http://hl7.org/fhir/StructureDefinition/data-absent-reason",
          "valueCode": "unknown"
        } ]
      },
      "valueCodeableConcept": {
        "coding": [ {
          "system": "http://snomed.info/sct",
          "code": "261665006"
        } ]
      }
    },
    "request": {
      "method": "POST",
      "url": "Observation",
      "ifNoneExist": "identifier=https://mein.krankenhaus.de/fhir/NamingSystem/observationId|d177fd6ccdb03af04a8980df03ea71e48a84f7a1eb87f2a7a5c9581668a05fff"
    }
  }, {
    "fullUrl": "Condition/5825cef90d4b3a156483809b4eb177bafd29dfc34fbcd4bef90932353948f688",
    "resource": {
      "resourceType": "Condition",
      "meta": {
        "profile": [ "https://www.netzwerk-universitaetsmedizin.de/fhir/StructureDefinition/dependence-on-ventilator" ]
      },
      "identifier": [ {
        "system": "https://mein.krankenhaus.de/fhir/NamingSystem/conditionId",
        "value": "5e898d39478f8a8210872327667d90f391b480df2bc792b48013b3e683ddfcf9"
      } ],
      "clinicalStatus": {
        "coding": [ {
          "system": "http://terminology.hl7.org/CodeSystem/condition-clinical",
          "code": "active",
          "display": "Active"
        } ]
      },
      "verificationStatus": {
        "coding": [ {
          "system": "http://terminology.hl7.org/CodeSystem/condition-ver-status",
          "code": "confirmed",
          "display": "Confirmed"
        }, {
          "system": "http://snomed.info/sct",
          "code": "410605003",
          "display": "Confirmed present (qualifier value)"
        } ]
      },
      "category": [ {
        "coding": [ {
          "system": "http://snomed.info/sct",
          "code": "404989005",
          "display": "Ventilation status (observable entity)"
        } ]
      } ],
      "code": {
        "coding": [ {
          "system": "http://snomed.info/sct",
          "code": "444932008"
        } ]
      },
      "subject": {
        "reference": "Patient/51ad521ffefaa7f5e58cc4e58b89c4998404f7c6201609a2881d9c483bfeca68"
      },
      "encounter": {
        "reference": "Encounter/d4f3f361f77cd1a463c3ca6e9d61f589a3822a1e2a1ac2f7b65fe98e5cd351fa"
      },
      "_recordedDate": {
        "extension": [ {
          "url": "http://hl7.org/fhir/StructureDefinition/data-absent-reason",
          "valueCode": "unknown"
        } ]
      }
    },
    "request": {
      "method": "POST",
      "url": "Condition",
      "ifNoneExist": "identifier=https://mein.krankenhaus.de/fhir/NamingSystem/conditionId|5825cef90d4b3a156483809b4eb177bafd29dfc34fbcd4bef90932353948f688"
    }
  }, {
    "fullUrl": "Observation/46d85d7dcafe431c6c5ef26a4563593c194b8c1c2b3a7b527e50593f58ac6ceb",
    "resource": {
      "resourceType": "Observation",
      "meta": {
        "profile": [ "https://www.netzwerk-universitaetsmedizin.de/fhir/StructureDefinition/discharge-disposition" ]
      },
      "identifier": [ {
        "type": {
          "coding": [ {
            "system": "http://terminology.hl7.org/CodeSystem/v2-0203",
            "code": "OBI",
            "display": "Observation Instance Identifier"
          } ]
        },
        "system": "https://mein.krankenhaus.de/fhir/NamingSystem/observationId",
        "value": "84d03ff405ae12fa8f2d6167c7d54b28c615b18c1f99672ac93884d14b58b5a0",
        "assigner": {
          "reference": "Organization/3a4f3433bce81181bad2d8e0b8fafccf7dc800bc06f29be73dcb38b750a48f9a"
        }
      } ],
      "status": "final",
      "category": [ {
        "coding": [ {
          "system": "http://terminology.hl7.org/CodeSystem/observation-category",
          "code": "social-history",
          "display": "Social History"
        } ]
      } ],
      "code": {
        "coding": [ {
          "system": "http://loinc.org",
          "code": "55128-3"
        } ],
        "text": "type of Discharge"
      },
      "subject": {
        "reference": "Patient/51ad521ffefaa7f5e58cc4e58b89c4998404f7c6201609a2881d9c483bfeca68"
      },
      "encounter": {
        "reference": "Encounter/d4f3f361f77cd1a463c3ca6e9d61f589a3822a1e2a1ac2f7b65fe98e5cd351fa"
      },
      "_effectiveDateTime": {
        "extension": [ {
          "url": "http://hl7.org/fhir/StructureDefinition/data-absent-reason",
          "valueCode": "unknown"
        } ]
      },
      "valueCodeableConcept": {
        "coding": [ {
          "system": "http://snomed.info/sct",
          "code": "306237005"
        } ]
      }
    },
    "request": {
      "method": "POST",
      "url": "Observation",
      "ifNoneExist": "identifier=https://mein.krankenhaus.de/fhir/NamingSystem/observationId|46d85d7dcafe431c6c5ef26a4563593c194b8c1c2b3a7b527e50593f58ac6ceb"
    }
  }, {
    "fullUrl": "Observation/b9f3ba3bc355d297cd7f3b57559e7ff678474093e3bedec14fbd33e4412037c6",
    "resource": {
      "resourceType": "Observation",
      "meta": {
        "profile": [ "https://www.netzwerk-universitaetsmedizin.de/fhir/StructureDefinition/sars-cov-2-rt-pcr" ]
      },
      "identifier": [ {
        "type": {
          "coding": [ {
            "system": "http://terminology.hl7.org/CodeSystem/v2-0203",
            "code": "OBI",
            "display": "Observation Instance Identifier"
          } ]
        },
        "system": "https://mein.krankenhaus.de/fhir/NamingSystem/observationId",
        "value": "f4b0640ca6040d0ab362ec1c803f504c4d02068a45dd79138ad7a1e377dfc8dc",
        "assigner": {
          "reference": "Organization/3a4f3433bce81181bad2d8e0b8fafccf7dc800bc06f29be73dcb38b750a48f9a"
        }
      } ],
      "status": "final",
      "category": [ {
        "coding": [ {
          "system": "http://terminology.hl7.org/CodeSystem/observation-category",
          "code": "laboratory",
          "display": "Laboratory"
        }, {
          "system": "http://loinc.org",
          "code": "26436-6",
          "display": "Laboratory studies (set)"
        } ]
      } ],
      "code": {
        "coding": [ {
          "system": "http://loinc.org",
          "code": "94500-6"
        } ]
      },
      "subject": {
        "reference": "Patient/51ad521ffefaa7f5e58cc4e58b89c4998404f7c6201609a2881d9c483bfeca68"
      },
      "encounter": {
        "reference": "Encounter/d4f3f361f77cd1a463c3ca6e9d61f589a3822a1e2a1ac2f7b65fe98e5cd351fa"
      },
      "_effectiveDateTime": {
        "extension": [ {
          "url": "http://hl7.org/fhir/StructureDefinition/data-absent-reason",
          "valueCode": "unknown"
        } ]
      },
      "valueCodeableConcept": {
        "coding": [ {
          "system": "http://snomed.info/sct",
          "code": "260415000"
        } ]
      }
    },
    "request": {
      "method": "POST",
      "url": "Observation",
      "ifNoneExist": "identifier=https://mein.krankenhaus.de/fhir/NamingSystem/observationId|b9f3ba3bc355d297cd7f3b57559e7ff678474093e3bedec14fbd33e4412037c6"
    }
  }, {
    "fullUrl": "MedicationStatement/eefd3edee04acd396d3957f225f0749af3ab943074b77f40fff4f594dc0a00f1",
    "resource": {
      "resourceType": "MedicationStatement",
      "meta": {
        "profile": [ "https://www.netzwerk-universitaetsmedizin.de/fhir/StructureDefinition/pharmacological-therapy" ]
      },
      "identifier": [ {
        "system": "https://mein.krankenhaus.de/fhir/NamingSystem/medicationstatementId",
        "value": "790e7a8efad664b4e2d343a62e02796840d0193e20c9d23133a358ff9f2ff9ee"
      } ],
      "status": "stopped",
      "medicationCodeableConcept": {
        "coding": [ {
          "system": "http://snomed.info/sct",
          "code": "41549009"
        } ],
        "text": "ACE inhibitors"
      },
      "subject": {
        "reference": "Patient/51ad521ffefaa7f5e58cc4e58b89c4998404f7c6201609a2881d9c483bfeca68"
      },
      "effectiveDateTime": "2020-02-05T03:57:00+00:00"
    },
    "request": {
      "method": "POST",
      "url": "MedicationStatement",
      "ifNoneExist": "identifier=https://mein.krankenhaus.de/fhir/NamingSystem/medicationstatementId|eefd3edee04acd396d3957f225f0749af3ab943074b77f40fff4f594dc0a00f1"
    }
  }, {
    "fullUrl": "MedicationStatement/63a6583da5567ac9fe9f3917417c56cc09952f4c45ab713e7635b0e58101ba3f",
    "resource": {
      "resourceType": "MedicationStatement",
      "meta": {
        "profile": [ "https://www.netzwerk-universitaetsmedizin.de/fhir/StructureDefinition/pharmacological-therapy" ]
      },
      "identifier": [ {
        "system": "https://mein.krankenhaus.de/fhir/NamingSystem/medicationstatementId",
        "value": "10e376b87f6fcb771e646801e7a494663c66ddb4b195964ecef888959f274100"
      } ],
      "status": "not-taken",
      "medicationCodeableConcept": {
        "coding": [ {
          "system": "http://snomed.info/sct",
          "code": "333710000"
        } ],
        "text": "immunoglobulins"
      },
      "subject": {
        "reference": "Patient/51ad521ffefaa7f5e58cc4e58b89c4998404f7c6201609a2881d9c483bfeca68"
      },
      "effectiveDateTime": "2020-02-05T03:57:00+00:00"
    },
    "request": {
      "method": "POST",
      "url": "MedicationStatement",
      "ifNoneExist": "identifier=https://mein.krankenhaus.de/fhir/NamingSystem/medicationstatementId|63a6583da5567ac9fe9f3917417c56cc09952f4c45ab713e7635b0e58101ba3f"
    }
  }, {
    "fullUrl": "MedicationStatement/38151fe86a237390c3aca67694f2a33604b05d9de0ffac773d261bbbdae5ed5c",
    "resource": {
      "resourceType": "MedicationStatement",
      "meta": {
        "profile": [ "https://www.netzwerk-universitaetsmedizin.de/fhir/StructureDefinition/pharmacological-therapy" ]
      },
      "identifier": [ {
        "system": "https://mein.krankenhaus.de/fhir/NamingSystem/medicationstatementId",
        "value": "f7ae2536bfece90bc7f7a446bc4ca44d94b577024e451d1afde5473a253cc561"
      } ],
      "status": "stopped",
      "medicationCodeableConcept": {
        "coding": [ {
          "system": "http://snomed.info/sct",
          "code": "41549009"
        } ],
        "text": "ACE inhibitors"
      },
      "subject": {
        "reference": "Patient/51ad521ffefaa7f5e58cc4e58b89c4998404f7c6201609a2881d9c483bfeca68"
      },
      "effectiveDateTime": "2020-03-16T11:03:00+00:00"
    },
    "request": {
      "method": "POST",
      "url": "MedicationStatement",
      "ifNoneExist": "identifier=https://mein.krankenhaus.de/fhir/NamingSystem/medicationstatementId|38151fe86a237390c3aca67694f2a33604b05d9de0ffac773d261bbbdae5ed5c"
    }
  }, {
    "fullUrl": "MedicationStatement/5abf16b110c9fe355aec5128b2c1a2ee84ccc7bf15cbf8225a3b80d257886dbc",
    "resource": {
      "resourceType": "MedicationStatement",
      "meta": {
        "profile": [ "https://www.netzwerk-universitaetsmedizin.de/fhir/StructureDefinition/pharmacological-therapy" ]
      },
      "identifier": [ {
        "system": "https://mein.krankenhaus.de/fhir/NamingSystem/medicationstatementId",
        "value": "b0da404fcf5515a0d40e2394c8da97ce82b853173d35f6139d357e7f1ea63132"
      } ],
      "status": "active",
      "medicationCodeableConcept": {
        "coding": [ {
          "system": "http://snomed.info/sct",
          "code": "333710000"
        } ],
        "text": "immunoglobulins"
      },
      "subject": {
        "reference": "Patient/51ad521ffefaa7f5e58cc4e58b89c4998404f7c6201609a2881d9c483bfeca68"
      },
      "effectiveDateTime": "2020-03-16T11:03:00+00:00"
    },
    "request": {
      "method": "POST",
      "url": "MedicationStatement",
      "ifNoneExist": "identifier=https://mein.krankenhaus.de/fhir/NamingSystem/medicationstatementId|5abf16b110c9fe355aec5128b2c1a2ee84ccc7bf15cbf8225a3b80d257886dbc"
    }
  }, {
    "fullUrl": "Observation/2590d2ce01cf7540401f4100f039005073516b46ef4273f3969cc8b445e31417",
    "resource": {
      "resourceType": "Observation",
      "meta": {
        "profile": [ "https://www.netzwerk-universitaetsmedizin.de/fhir/StructureDefinition/carbon-dioxide-partial-pressure" ]
      },
      "identifier": [ {
        "type": {
          "coding": [ {
            "system": "http://terminology.hl7.org/CodeSystem/v2-0203",
            "code": "OBI",
            "display": "Observation Instance Identifier"
          } ]
        },
        "system": "https://mein.krankenhaus.de/fhir/NamingSystem/observationId",
        "value": "485aedc4d36a819027ef9158b9a72f6679c74043dfc27e583ce3b1013829a92f",
        "assigner": {
          "reference": "Organization/3a4f3433bce81181bad2d8e0b8fafccf7dc800bc06f29be73dcb38b750a48f9a"
        }
      } ],
      "status": "final",
      "category": [ {
        "coding": [ {
          "system": "http://terminology.hl7.org/CodeSystem/observation-category",
          "code": "laboratory",
          "display": "Laboratory"
        }, {
          "system": "http://loinc.org",
          "code": "26436-6",
          "display": "Laboratory studies (set)"
        }, {
          "system": "http://loinc.org",
          "code": "18767-4",
          "display": "Blood gas studies (set)"
        } ]
      } ],
      "code": {
        "coding": [ {
          "system": "http://loinc.org",
          "code": "11557-6"
        } ],
        "text": "Carbon dioxide [Partial pressure] in blood"
      },
      "subject": {
        "reference": "Patient/51ad521ffefaa7f5e58cc4e58b89c4998404f7c6201609a2881d9c483bfeca68"
      },
      "encounter": {
        "reference": "Encounter/d4f3f361f77cd1a463c3ca6e9d61f589a3822a1e2a1ac2f7b65fe98e5cd351fa"
      },
      "effectiveDateTime": "2020-10-06T00:55:00+00:00",
      "valueQuantity": {
        "value": 194,
        "unit": "mmHg",
        "system": "http://unitsofmeasure.org",
        "code": "mm[Hg]"
      }
    },
    "request": {
      "method": "POST",
      "url": "Observation",
      "ifNoneExist": "identifier=https://mein.krankenhaus.de/fhir/NamingSystem/observationId|2590d2ce01cf7540401f4100f039005073516b46ef4273f3969cc8b445e31417"
    }
  }, {
    "fullUrl": "Observation/c4b8e7ecc267ab535f1adc4ed38f2fb73d98c1a9c887df419f7f2793e080e4c5",
    "resource": {
      "resourceType": "Observation",
      "meta": {
        "profile": [ "https://www.netzwerk-universitaetsmedizin.de/fhir/StructureDefinition/oxygen-partial-pressure" ]
      },
      "identifier": [ {
        "type": {
          "coding": [ {
            "system": "http://terminology.hl7.org/CodeSystem/v2-0203",
            "code": "OBI",
            "display": "Observation Instance Identifier"
          } ]
        },
        "system": "https://mein.krankenhaus.de/fhir/NamingSystem/observationId",
        "value": "93231d0c26d00a7055a0d738b35006503388f93f56326079127abf4b7eacc969",
        "assigner": {
          "reference": "Organization/3a4f3433bce81181bad2d8e0b8fafccf7dc800bc06f29be73dcb38b750a48f9a"
        }
      } ],
      "status": "final",
      "category": [ {
        "coding": [ {
          "system": "http://terminology.hl7.org/CodeSystem/observation-category",
          "code": "laboratory",
          "display": "Laboratory"
        }, {
          "system": "http://loinc.org",
          "code": "26436-6",
          "display": "Laboratory studies (set)"
        }, {
          "system": "http://loinc.org",
          "code": "18767-4",
          "display": "Blood gas studies (set)"
        } ]
      } ],
      "code": {
        "coding": [ {
          "system": "http://loinc.org",
          "code": "11557-8"
        } ],
        "text": "Oxygen [Partial pressure] in blood"
      },
      "subject": {
        "reference": "Patient/51ad521ffefaa7f5e58cc4e58b89c4998404f7c6201609a2881d9c483bfeca68"
      },
      "encounter": {
        "reference": "Encounter/d4f3f361f77cd1a463c3ca6e9d61f589a3822a1e2a1ac2f7b65fe98e5cd351fa"
      },
      "effectiveDateTime": "2020-10-06T00:55:00+00:00",
      "valueQuantity": {
        "value": 24,
        "unit": "mmHg",
        "system": "http://unitsofmeasure.org",
        "code": "mm[Hg]"
      }
    },
    "request": {
      "method": "POST",
      "url": "Observation",
      "ifNoneExist": "identifier=https://mein.krankenhaus.de/fhir/NamingSystem/observationId|c4b8e7ecc267ab535f1adc4ed38f2fb73d98c1a9c887df419f7f2793e080e4c5"
    }
  }, {
    "fullUrl": "Observation/b0c4f4d9b0203cbb3e3cf4a6928507225d5b0d4665413665d1edd81bc27e4f51",
    "resource": {
      "resourceType": "Observation",
      "meta": {
        "profile": [ "https://www.netzwerk-universitaetsmedizin.de/fhir/StructureDefinition/pH" ]
      },
      "identifier": [ {
        "type": {
          "coding": [ {
            "system": "http://terminology.hl7.org/CodeSystem/v2-0203",
            "code": "OBI",
            "display": "Observation Instance Identifier"
          } ]
        },
        "system": "https://mein.krankenhaus.de/fhir/NamingSystem/observationId",
        "value": "fe28bf7a0d3582a19ddc576ce41f6a7d14b7011c4f93e62fc0946091814e87e5",
        "assigner": {
          "reference": "Organization/3a4f3433bce81181bad2d8e0b8fafccf7dc800bc06f29be73dcb38b750a48f9a"
        }
      } ],
      "status": "final",
      "category": [ {
        "coding": [ {
          "system": "http://terminology.hl7.org/CodeSystem/observation-category",
          "code": "laboratory",
          "display": "Laboratory"
        }, {
          "system": "http://loinc.org",
          "code": "26436-6",
          "display": "Laboratory studies (set)"
        }, {
          "system": "http://loinc.org",
          "code": "18767-4",
          "display": "Blood gas studies (set)"
        } ]
      } ],
      "code": {
        "coding": [ {
          "system": "http://loinc.org",
          "code": "11558-4"
        } ],
        "text": "pH of Blood"
      },
      "subject": {
        "reference": "Patient/51ad521ffefaa7f5e58cc4e58b89c4998404f7c6201609a2881d9c483bfeca68"
      },
      "encounter": {
        "reference": "Encounter/d4f3f361f77cd1a463c3ca6e9d61f589a3822a1e2a1ac2f7b65fe98e5cd351fa"
      },
      "effectiveDateTime": "2020-10-06T00:55:00+00:00",
      "valueQuantity": {
        "value": 0.5528159677773294,
        "unit": "pH",
        "system": "http://unitsofmeasure.org",
        "code": "[pH]"
      }
    },
    "request": {
      "method": "POST",
      "url": "Observation",
      "ifNoneExist": "identifier=https://mein.krankenhaus.de/fhir/NamingSystem/observationId|b0c4f4d9b0203cbb3e3cf4a6928507225d5b0d4665413665d1edd81bc27e4f51"
    }
  }, {
    "fullUrl": "Observation/96ce314e916c686a575344b895c0c8bba2e0853df3713300649ab17d15167c38",
    "resource": {
      "resourceType": "Observation",
      "meta": {
        "profile": [ "https://www.netzwerk-universitaetsmedizin.de/fhir/StructureDefinition/sofa-score" ]
      },
      "identifier": [ {
        "type": {
          "coding": [ {
            "system": "http://terminology.hl7.org/CodeSystem/v2-0203",
            "code": "OBI",
            "display": "Observation Instance Identifier"
          } ]
        },
        "system": "https://mein.krankenhaus.de/fhir/NamingSystem/observationId",
        "value": "42286b37f0894970944446c7dc0a776dc07ac2743036caef073f4de7cf96d98b",
        "assigner": {
          "reference": "Organization/3a4f3433bce81181bad2d8e0b8fafccf7dc800bc06f29be73dcb38b750a48f9a"
        }
      } ],
      "status": "final",
      "category": [ {
        "coding": [ {
          "system": "http://terminology.hl7.org/CodeSystem/observation-category",
          "code": "survey",
          "display": "Survey"
        } ]
      } ],
      "code": {
        "coding": [ {
          "system": "https://www.netzwerk-universitaetsmedizin.de/fhir/CodeSystem/ecrf-parameter-codes",
          "code": "06",
          "display": "SOFA-Score"
        } ],
        "text": "Sepsis-related organ failure assessment score"
      },
      "subject": {
        "reference": "Patient/51ad521ffefaa7f5e58cc4e58b89c4998404f7c6201609a2881d9c483bfeca68"
      },
      "encounter": {
        "reference": "Encounter/d4f3f361f77cd1a463c3ca6e9d61f589a3822a1e2a1ac2f7b65fe98e5cd351fa"
      },
      "effectiveDateTime": "2020-10-06T00:55:00+00:00",
      "valueInteger": 8,
      "component": [ {
        "code": {
          "coding": [ {
            "system": "https://www.netzwerk-universitaetsmedizin.de/fhir/CodeSystem/sofa-score",
            "code": "resp",
            "display": "Respiratory system"
          } ],
          "text": "SOFA Respiratory system scoring category"
        },
        "valueCodeableConcept": {
          "coding": [ {
            "system": "https://www.netzwerk-universitaetsmedizin.de/fhir/CodeSystem/sofa-score",
            "code": "resp0",
            "display": "Respiratory system SOFA score 0"
          } ],
          "text": "PaO2/FiO2 [mmHg (kPa)] ≥ 400 (53.3)"
        }
      }, {
        "code": {
          "coding": [ {
            "system": "https://www.netzwerk-universitaetsmedizin.de/fhir/CodeSystem/sofa-score",
            "code": "ns",
            "display": "Nervous system"
          } ],
          "text": "SOFA Nervous system scoring category"
        },
        "valueCodeableConcept": {
          "coding": [ {
            "system": "https://www.netzwerk-universitaetsmedizin.de/fhir/CodeSystem/sofa-score",
            "code": "ns1",
            "display": "Nervous system SOFA score 1"
          } ],
          "text": "Glasgow Coma Scale (GCS) 13-14"
        }
      }, {
        "code": {
          "coding": [ {
            "system": "https://www.netzwerk-universitaetsmedizin.de/fhir/CodeSystem/sofa-score",
            "code": "kid",
            "display": "Kidneys"
          } ],
          "text": "SOFA Kidneys scoring category"
        },
        "valueCodeableConcept": {
          "coding": [ {
            "system": "https://www.netzwerk-universitaetsmedizin.de/fhir/CodeSystem/sofa-score",
            "code": "kid2",
            "display": "Kidneys SOFA score 2"
          } ],
          "text": "Creatinine (mg/dl) [?mol/L] (or urine output) 2.0-3.4 [171-299]"
        }
      }, {
        "code": {
          "coding": [ {
            "system": "https://www.netzwerk-universitaetsmedizin.de/fhir/CodeSystem/sofa-score",
            "code": "cvs",
            "display": "Cardiovascular system"
          } ],
          "text": "SOFA Cardiovascular system scoring category"
        },
        "valueCodeableConcept": {
          "coding": [ {
            "system": "https://www.netzwerk-universitaetsmedizin.de/fhir/CodeSystem/sofa-score",
            "code": "cvs0",
            "display": "Cardiovascular system SOFA score 0"
          } ],
          "text": "Mean arterial pressure (definitions) ≥ 70 mmHg"
        }
      }, {
        "code": {
          "coding": [ {
            "system": "https://www.netzwerk-universitaetsmedizin.de/fhir/CodeSystem/sofa-score",
            "code": "liv",
            "display": "Liver"
          } ],
          "text": "SOFA Liver scoring category"
        },
        "valueCodeableConcept": {
          "coding": [ {
            "system": "https://www.netzwerk-universitaetsmedizin.de/fhir/CodeSystem/sofa-score",
            "code": "liv4",
            "display": "Liver SOFA score 4"
          } ],
          "text": "Bilirubin (mg/dl) [umol/L] > 12.0 [> 204]"
        }
      }, {
        "code": {
          "coding": [ {
            "system": "https://www.netzwerk-universitaetsmedizin.de/fhir/CodeSystem/sofa-score",
            "code": "coa",
            "display": "Coagulation"
          } ],
          "text": "SOFA Coagulation scoring category"
        },
        "valueCodeableConcept": {
          "coding": [ {
            "system": "https://www.netzwerk-universitaetsmedizin.de/fhir/CodeSystem/sofa-score",
            "code": "coa1",
            "display": "Coagulation SOFA score 1"
          } ],
          "text": "Platelets×10^3/ul < 150"
        }
      } ]
    },
    "request": {
      "method": "POST",
      "url": "Observation",
      "ifNoneExist": "identifier=https://mein.krankenhaus.de/fhir/NamingSystem/observationId|96ce314e916c686a575344b895c0c8bba2e0853df3713300649ab17d15167c38"
    }
  }, {
    "fullUrl": "Observation/74faabcc7d5340677dafb55d03858d64b1f1208a5f78adbe3ca67f8c74ea5372",
    "resource": {
      "resourceType": "Observation",
      "meta": {
        "profile": [ "https://www.netzwerk-universitaetsmedizin.de/fhir/StructureDefinition/respiratory-rate" ]
      },
      "identifier": [ {
        "type": {
          "coding": [ {
            "system": "http://terminology.hl7.org/CodeSystem/v2-0203",
            "code": "OBI",
            "display": "Observation Instance Identifier"
          } ]
        },
        "system": "https://mein.krankenhaus.de/fhir/NamingSystem/observationId",
        "value": "608ac17c979d21be7b2389c30e4b3261f7df3d558380b25656bce8848c99c2e2",
        "assigner": {
          "reference": "Organization/3a4f3433bce81181bad2d8e0b8fafccf7dc800bc06f29be73dcb38b750a48f9a"
        }
      } ],
      "status": "final",
      "category": [ {
        "coding": [ {
          "system": "http://terminology.hl7.org/CodeSystem/observation-category",
          "code": "vital-signs",
          "display": "Vital Signs"
        } ]
      } ],
      "code": {
        "coding": [ {
          "system": "http://loinc.org",
          "code": "9279-1"
        }, {
          "system": "http://snomed.info/sct",
          "code": "86290005"
        } ],
        "text": "Respiratory rate"
      },
      "subject": {
        "reference": "Patient/51ad521ffefaa7f5e58cc4e58b89c4998404f7c6201609a2881d9c483bfeca68"
      },
      "encounter": {
        "reference": "Encounter/d4f3f361f77cd1a463c3ca6e9d61f589a3822a1e2a1ac2f7b65fe98e5cd351fa"
      },
      "effectiveDateTime": "2020-10-06T00:55:00+00:00",
      "valueQuantity": {
        "value": 128,
        "unit": "per minute",
        "system": "http://unitsofmeasure.org",
        "code": "/min"
      }
    },
    "request": {
      "method": "POST",
      "url": "Observation",
      "ifNoneExist": "identifier=https://mein.krankenhaus.de/fhir/NamingSystem/observationId|74faabcc7d5340677dafb55d03858d64b1f1208a5f78adbe3ca67f8c74ea5372"
    }
  }, {
    "fullUrl": "Observation/2fc1e5bcd57a1e08949d4020469a52462a34fcdb6c327f8abdd2b8fb1439621e",
    "resource": {
      "resourceType": "Observation",
      "meta": {
        "profile": [ "https://www.netzwerk-universitaetsmedizin.de/fhir/StructureDefinition/blood-pressure" ]
      },
      "identifier": [ {
        "type": {
          "coding": [ {
            "system": "http://terminology.hl7.org/CodeSystem/v2-0203",
            "code": "OBI",
            "display": "Observation Instance Identifier"
          } ]
        },
        "system": "https://mein.krankenhaus.de/fhir/NamingSystem/observationId",
        "value": "bbd518c8886e53f6e97e39953969f1e7537bcd04ecdd572b43ec205dd1d9d92d",
        "assigner": {
          "reference": "Organization/3a4f3433bce81181bad2d8e0b8fafccf7dc800bc06f29be73dcb38b750a48f9a"
        }
      } ],
      "status": "final",
      "category": [ {
        "coding": [ {
          "system": "http://terminology.hl7.org/CodeSystem/observation-category",
          "code": "vital-signs",
          "display": "Vital Signs"
        } ]
      } ],
      "code": {
        "coding": [ {
          "system": "http://loinc.org",
          "code": "85354-9",
          "display": "Blood pressure panel with all children optional"
        }, {
          "system": "http://snomed.info/sct",
          "code": "75367002",
          "display": "Blood pressure (observable entity)"
        } ],
        "text": "Blood pressure"
      },
      "subject": {
        "reference": "Patient/51ad521ffefaa7f5e58cc4e58b89c4998404f7c6201609a2881d9c483bfeca68"
      },
      "encounter": {
        "reference": "Encounter/d4f3f361f77cd1a463c3ca6e9d61f589a3822a1e2a1ac2f7b65fe98e5cd351fa"
      },
      "effectiveDateTime": "2020-10-06T00:55:00+00:00",
      "component": [ {
        "code": {
          "coding": [ {
            "system": "http://loinc.org",
            "code": "8480-6"
          }, {
            "system": "http://snomed.info/sct",
            "code": "271649006"
          } ],
          "text": "Systolic blood pressure"
        },
        "valueQuantity": {
          "value": 178,
          "unit": "mmHg",
          "system": "http://unitsofmeasure.org",
          "code": "mm[Hg]"
        }
      }, {
        "code": {
          "coding": [ {
            "system": "http://loinc.org",
            "code": "8462-4"
          }, {
            "system": "http://snomed.info/sct",
            "code": "271650006"
          } ],
          "text": "Diastolic blood pressure"
        },
        "valueQuantity": {
          "value": 129,
          "unit": "mmHg",
          "system": "http://unitsofmeasure.org",
          "code": "mm[Hg]"
        }
      } ]
    },
    "request": {
      "method": "POST",
      "url": "Observation",
      "ifNoneExist": "identifier=https://mein.krankenhaus.de/fhir/NamingSystem/observationId|2fc1e5bcd57a1e08949d4020469a52462a34fcdb6c327f8abdd2b8fb1439621e"
    }
  }, {
    "fullUrl": "Observation/458ecce4c78d36c816171570a829016729940d31ee110002221ce5063cec120c",
    "resource": {
      "resourceType": "Observation",
      "meta": {
        "profile": [ "https://www.netzwerk-universitaetsmedizin.de/fhir/StructureDefinition/heart-rate" ]
      },
      "identifier": [ {
        "type": {
          "coding": [ {
            "system": "http://terminology.hl7.org/CodeSystem/v2-0203",
            "code": "OBI",
            "display": "Observation Instance Identifier"
          } ]
        },
        "system": "https://mein.krankenhaus.de/fhir/NamingSystem/observationId",
        "value": "533878e10084bb1cca4aa6d0cf947242515b10ccd2ddf0ecd226218b3e27adce",
        "assigner": {
          "reference": "Organization/3a4f3433bce81181bad2d8e0b8fafccf7dc800bc06f29be73dcb38b750a48f9a"
        }
      } ],
      "status": "final",
      "category": [ {
        "coding": [ {
          "system": "http://terminology.hl7.org/CodeSystem/observation-category",
          "code": "vital-signs",
          "display": "Vital Signs"
        } ]
      } ],
      "code": {
        "coding": [ {
          "system": "http://loinc.org",
          "code": "8867-4"
        }, {
          "system": "http://snomed.info/sct",
          "code": "364075005"
        } ],
        "text": "Heart rate"
      },
      "subject": {
        "reference": "Patient/51ad521ffefaa7f5e58cc4e58b89c4998404f7c6201609a2881d9c483bfeca68"
      },
      "encounter": {
        "reference": "Encounter/d4f3f361f77cd1a463c3ca6e9d61f589a3822a1e2a1ac2f7b65fe98e5cd351fa"
      },
      "effectiveDateTime": "2020-10-06T00:55:00+00:00",
      "valueQuantity": {
        "value": 160,
        "unit": "per minute",
        "system": "http://unitsofmeasure.org",
        "code": "/min"
      }
    },
    "request": {
      "method": "POST",
      "url": "Observation",
      "ifNoneExist": "identifier=https://mein.krankenhaus.de/fhir/NamingSystem/observationId|458ecce4c78d36c816171570a829016729940d31ee110002221ce5063cec120c"
    }
  }, {
    "fullUrl": "Observation/b1f7b7366a37e31c7c8c1e5dbc5ada6625a7ce17a21751352ddcdf8670ec71dd",
    "resource": {
      "resourceType": "Observation",
      "meta": {
        "profile": [ "https://www.netzwerk-universitaetsmedizin.de/fhir/StructureDefinition/body-temperature" ]
      },
      "identifier": [ {
        "type": {
          "coding": [ {
            "system": "http://terminology.hl7.org/CodeSystem/v2-0203",
            "code": "OBI",
            "display": "Observation Instance Identifier"
          } ]
        },
        "system": "https://mein.krankenhaus.de/fhir/NamingSystem/observationId",
        "value": "ef1aac2475c21bd9cb770a4b4c2683093e05c01e7a7c81cc07fe6d8c0e22212d",
        "assigner": {
          "reference": "Organization/3a4f3433bce81181bad2d8e0b8fafccf7dc800bc06f29be73dcb38b750a48f9a"
        }
      } ],
      "status": "final",
      "category": [ {
        "coding": [ {
          "system": "http://terminology.hl7.org/CodeSystem/observation-category",
          "code": "vital-signs",
          "display": "Vital Signs"
        } ]
      } ],
      "code": {
        "coding": [ {
          "system": "http://loinc.org",
          "code": "8310-5"
        }, {
          "system": "http://snomed.info/sct",
          "code": "386725007"
        } ],
        "text": "Body temperature"
      },
      "subject": {
        "reference": "Patient/51ad521ffefaa7f5e58cc4e58b89c4998404f7c6201609a2881d9c483bfeca68"
      },
      "encounter": {
        "reference": "Encounter/d4f3f361f77cd1a463c3ca6e9d61f589a3822a1e2a1ac2f7b65fe98e5cd351fa"
      },
      "effectiveDateTime": "2020-10-06T00:55:00+00:00",
      "valueQuantity": {
        "value": 32.550520425749355,
        "unit": "°C",
        "system": "http://unitsofmeasure.org",
        "code": "Cel"
      }
    },
    "request": {
      "method": "POST",
      "url": "Observation",
      "ifNoneExist": "identifier=https://mein.krankenhaus.de/fhir/NamingSystem/observationId|b1f7b7366a37e31c7c8c1e5dbc5ada6625a7ce17a21751352ddcdf8670ec71dd"
    }
  }, {
    "fullUrl": "Observation/6a0177090603c3eb29c0d0b8c163046d55f676e6b5e03dc6dfc85a31735aa06d",
    "resource": {
      "resourceType": "Observation",
      "meta": {
        "profile": [ "https://www.netzwerk-universitaetsmedizin.de/fhir/StructureDefinition/study-inclusion-covid-19" ]
      },
      "identifier": [ {
        "type": {
          "coding": [ {
            "system": "http://terminology.hl7.org/CodeSystem/v2-0203",
            "code": "OBI",
            "display": "Observation Instance Identifier"
          } ]
        },
        "system": "https://mein.krankenhaus.de/fhir/NamingSystem/observationId",
        "value": "84c7ca67a9129db236b3541a34feb1778d468086314786a25df16dcd24bf67aa",
        "assigner": {
          "reference": "Organization/3a4f3433bce81181bad2d8e0b8fafccf7dc800bc06f29be73dcb38b750a48f9a"
        }
      } ],
      "status": "final",
      "category": [ {
        "coding": [ {
          "system": "http://terminology.hl7.org/CodeSystem/observation-category",
          "code": "survey",
          "display": "Survey"
        } ]
      } ],
      "code": {
        "coding": [ {
          "system": "https://www.netzwerk-universitaetsmedizin.de/fhir/CodeSystem/ecrf-parameter-codes",
          "code": "02",
          "display": "Study inclusion due to Covid-19"
        } ],
        "text": "Confirmed Covid-19 diagnosis as main reason for enrolment in the study"
      },
      "subject": {
        "reference": "Patient/51ad521ffefaa7f5e58cc4e58b89c4998404f7c6201609a2881d9c483bfeca68"
      },
      "_effectiveDateTime": {
        "extension": [ {
          "url": "http://hl7.org/fhir/StructureDefinition/data-absent-reason",
          "valueCode": "unknown"
        } ]
      },
      "valueCodeableConcept": {
        "coding": [ {
          "system": "http://snomed.info/sct",
          "code": "373066001"
        } ]
      }
    },
    "request": {
      "method": "POST",
      "url": "Observation",
      "ifNoneExist": "identifier=https://mein.krankenhaus.de/fhir/NamingSystem/observationId|6a0177090603c3eb29c0d0b8c163046d55f676e6b5e03dc6dfc85a31735aa06d"
    }
  }, {
    "fullUrl": "Observation/f432ba0bf6dcf8706e4831072997ebf17cb8acad1183440f9b47706fd3fac2a6",
    "resource": {
      "resourceType": "Observation",
      "meta": {
        "profile": [ "https://www.netzwerk-universitaetsmedizin.de/fhir/StructureDefinition/interventional-clinical-trial-participation" ]
      },
      "identifier": [ {
        "type": {
          "coding": [ {
            "system": "http://terminology.hl7.org/CodeSystem/v2-0203",
            "code": "OBI",
            "display": "Observation Instance Identifier"
          } ]
        },
        "system": "https://mein.krankenhaus.de/fhir/NamingSystem/observationId",
        "value": "c4bdb120f100bc11129f895a34a8981ce44a08205a54cf8636efa0d2a4f17f80",
        "assigner": {
          "reference": "Organization/3a4f3433bce81181bad2d8e0b8fafccf7dc800bc06f29be73dcb38b750a48f9a"
        }
      } ],
      "status": "final",
      "category": [ {
        "coding": [ {
          "system": "http://terminology.hl7.org/CodeSystem/observation-category",
          "code": "survey",
          "display": "Survey"
        } ]
      } ],
      "code": {
        "coding": [ {
          "system": "https://www.netzwerk-universitaetsmedizin.de/fhir/CodeSystem/ecrf-parameter-codes",
          "code": "03",
          "display": "Participation in interventional clinical trials"
        } ],
        "text": "Has the patient participated in one or more interventional clinical trials?"
      },
      "subject": {
        "reference": "Patient/51ad521ffefaa7f5e58cc4e58b89c4998404f7c6201609a2881d9c483bfeca68"
      },
      "_effectiveDateTime": {
        "extension": [ {
          "url": "http://hl7.org/fhir/StructureDefinition/data-absent-reason",
          "valueCode": "unknown"
        } ]
      },
      "valueCodeableConcept": {
        "coding": [ {
          "system": "http://snomed.info/sct",
          "code": "373067005"
        } ]
      }
    },
    "request": {
      "method": "POST",
      "url": "Observation",
      "ifNoneExist": "identifier=https://mein.krankenhaus.de/fhir/NamingSystem/observationId|f432ba0bf6dcf8706e4831072997ebf17cb8acad1183440f9b47706fd3fac2a6"
    }
  } ]
}