{
  "resourceType": "Bundle",
  "meta": {
    "profile": [ "https://www.netzwerk-universitaetsmedizin.de/fhir/StructureDefinition/gecco-bundle" ]
  },
  "type": "transaction",
  "entry": [ {
    "fullUrl": "Patient/7a78511c2ce57c68d66d5ec5ddf39fe2ca7a9445b2e4c719f4e189efbe89cddd",
    "resource": {
      "resourceType": "Patient",
      "meta": {
        "profile": [ "https://www.netzwerk-universitaetsmedizin.de/fhir/StructureDefinition/Patient" ]
      },
      "extension": [ {
        "url": "https://www.netzwerk-universitaetsmedizin.de/fhir/StructureDefinition/age",
        "extension": [ {
          "url": "dateTimeOfDocumentation",
          "_valueDateTime": {
            "extension": [ {
              "url": "http://hl7.org/fhir/StructureDefinition/data-absent-reason",
              "valueCode": "unknown"
            } ]
          }
        }, {
          "url": "age",
          "valueAge": {
            "value": 76,
            "unit": "years",
            "system": "http://unitsofmeasure.org",
            "code": "a"
          }
        } ]
      }, {
        "url": "https://www.netzwerk-universitaetsmedizin.de/fhir/StructureDefinition/ethnic-group",
        "valueCoding": {
          "system": "http://snomed.info/sct",
          "code": "18167009"
        }
      } ],
      "identifier": [ {
        "type": {
          "coding": [ {
            "system": "http://terminology.hl7.org/CodeSystem/v2-0203",
            "code": "MR"
          } ]
        },
        "system": "https://mein.krankenhaus.de/fhir/NamingSystem/patientId",
        "value": "synthetic_patient_536609851",
        "assigner": {
          "reference": "Organization/3a4f3433bce81181bad2d8e0b8fafccf7dc800bc06f29be73dcb38b750a48f9a"
        }
      } ],
      "birthDate": "1944-09-19"
    },
    "request": {
      "method": "POST",
      "url": "Patient",
      "ifNoneExist": "identifier=https://mein.krankenhaus.de/fhir/NamingSystem/patientId|7a78511c2ce57c68d66d5ec5ddf39fe2ca7a9445b2e4c719f4e189efbe89cddd"
    }
  }, {
    "fullUrl": "Organization/3a4f3433bce81181bad2d8e0b8fafccf7dc800bc06f29be73dcb38b750a48f9a",
    "resource": {
      "resourceType": "Organization",
      "name": "Mein Krankenhaus"
    },
    "request": {
      "method": "POST",
      "url": "Organization",
      "ifNoneExist": "identifier=null|3a4f3433bce81181bad2d8e0b8fafccf7dc800bc06f29be73dcb38b750a48f9a"
    }
  }, {
    "fullUrl": "Encounter/d59baec720d1fb011b2384d80405ece9c51ad478ae28f6bd49b4aabc40a83f19",
    "resource": {
      "resourceType": "Encounter",
      "identifier": [ {
        "system": "https://mein.krankenhaus.de/fhir/NamingSystem/encounterId",
        "value": "d5ddac8ef524e1bc7af32caaeec2a54d75fdc298003fe4f0d5b583b3e5e44e8c",
        "assigner": {
          "reference": "Organization/3a4f3433bce81181bad2d8e0b8fafccf7dc800bc06f29be73dcb38b750a48f9a"
        }
      } ],
      "status": "unknown",
      "class": {
        "system": "http://terminology.hl7.org/CodeSystem/v3-ActCode",
        "code": "IMP",
        "display": "inpatient encounter"
      },
      "subject": {
        "reference": "Patient/7a78511c2ce57c68d66d5ec5ddf39fe2ca7a9445b2e4c719f4e189efbe89cddd"
      }
    },
    "request": {
      "method": "POST",
      "url": "Encounter",
      "ifNoneExist": "identifier=https://mein.krankenhaus.de/fhir/NamingSystem/encounterId|d59baec720d1fb011b2384d80405ece9c51ad478ae28f6bd49b4aabc40a83f19"
    }
  }, {
    "fullUrl": "Condition/403eb0711e6d0ddcb3cc55565d0192ff918cc6b28368ca2226838412df33010a",
    "resource": {
      "resourceType": "Condition",
      "meta": {
        "profile": [ "https://www.netzwerk-universitaetsmedizin.de/fhir/StructureDefinition/diagnosis-covid-19" ]
      },
      "identifier": [ {
        "system": "https://mein.krankenhaus.de/fhir/NamingSystem/conditionId",
        "value": "4661e5ff4b92f04edbbcc601ae2a4725f7070e9f0125bd1c26534e760215c75d"
      } ],
      "clinicalStatus": {
        "coding": [ {
          "system": "http://terminology.hl7.org/CodeSystem/condition-clinical",
          "code": "active",
          "display": "Active"
        } ]
      },
      "verificationStatus": {
        "coding": [ {
          "system": "http://terminology.hl7.org/CodeSystem/condition-ver-status",
          "code": "confirmed",
          "display": "Confirmed"
        }, {
          "system": "http://snomed.info/sct",
          "code": "410605003",
          "display": "Confirmed present (qualifier value)"
        } ]
      },
      "category": [ {
        "coding": [ {
          "system": "http://snomed.info/sct",
          "code": "394807007",
          "display": "Infectious diseases (specialty) (qualifier value)"
        } ]
      } ],
      "code": {
        "coding": [ {
          "system": "http://snomed.info/sct",
          "code": "840539006",
          "display": "Disease caused by Severe acute respiratory syndrome coronavirus 2 (disorder)"
        } ]
      },
      "subject": {
        "reference": "Patient/7a78511c2ce57c68d66d5ec5ddf39fe2ca7a9445b2e4c719f4e189efbe89cddd"
      },
      "encounter": {
        "reference": "Encounter/d59baec720d1fb011b2384d80405ece9c51ad478ae28f6bd49b4aabc40a83f19"
      },
      "_recordedDate": {
        "extension": [ {
          "url": "http://hl7.org/fhir/StructureDefinition/data-absent-reason",
          "valueCode": "unknown"
        } ]
      },
      "stage": [ {
        "summary": {
          "coding": [ {
            "system": "http://snomed.info/sct",
            "code": "6736007"
          } ]
        },
        "type": {
          "coding": [ {
            "system": "http://loinc.org",
            "code": "88859-4"
          } ]
        }
      } ]
    },
    "request": {
      "method": "POST",
      "url": "Condition",
      "ifNoneExist": "identifier=https://mein.krankenhaus.de/fhir/NamingSystem/conditionId|403eb0711e6d0ddcb3cc55565d0192ff918cc6b28368ca2226838412df33010a"
    }
  }, {
    "fullUrl": "Condition/1a19804d669d3f79c7e26c9aefb1bab7729b1b8a3d613146c78947237cc00d9c",
    "resource": {
      "resourceType": "Condition",
      "meta": {
        "profile": [ "https://www.netzwerk-universitaetsmedizin.de/fhir/StructureDefinition/human-immunodeficiency-virus-infection" ]
      },
      "identifier": [ {
        "system": "https://mein.krankenhaus.de/fhir/NamingSystem/conditionId",
        "value": "8b0b7b1687cf4db345c594fd8a62571fca121fb8b8b4379368af9bea6f19d8a6"
      } ],
      "verificationStatus": {
        "coding": [ {
          "system": "http://terminology.hl7.org/CodeSystem/condition-ver-status",
          "code": "refuted",
          "display": "Refuted"
        }, {
          "system": "http://snomed.info/sct",
          "code": "410594000",
          "display": "Definitely NOT present (qualifier value)"
        } ]
      },
      "category": [ {
        "coding": [ {
          "system": "http://snomed.info/sct",
          "code": "394807007",
          "display": "Infectious diseases (specialty) (qualifier value)"
        } ]
      } ],
      "code": {
        "coding": [ {
          "system": "http://fhir.de/CodeSystem/dimdi/icd-10-gm",
          "version": "2021",
          "code": "B24"
        }, {
          "system": "http://snomed.info/sct",
          "code": "86406008"
        } ]
      },
      "subject": {
        "reference": "Patient/7a78511c2ce57c68d66d5ec5ddf39fe2ca7a9445b2e4c719f4e189efbe89cddd"
      },
      "encounter": {
        "reference": "Encounter/d59baec720d1fb011b2384d80405ece9c51ad478ae28f6bd49b4aabc40a83f19"
      },
      "_recordedDate": {
        "extension": [ {
          "url": "http://hl7.org/fhir/StructureDefinition/data-absent-reason",
          "valueCode": "unknown"
        } ]
      }
    },
    "request": {
      "method": "POST",
      "url": "Condition",
      "ifNoneExist": "identifier=https://mein.krankenhaus.de/fhir/NamingSystem/conditionId|1a19804d669d3f79c7e26c9aefb1bab7729b1b8a3d613146c78947237cc00d9c"
    }
  }, {
    "fullUrl": "Condition/a4ce86bd30e44462c3fefe8e1bb2a009c23e685fb36ca0ea8bf0539770aab11c",
    "resource": {
      "resourceType": "Condition",
      "meta": {
        "profile": [ "https://www.netzwerk-universitaetsmedizin.de/fhir/StructureDefinition/organ-recipient" ]
      },
      "identifier": [ {
        "system": "https://mein.krankenhaus.de/fhir/NamingSystem/conditionId",
        "value": "70514c47da12886ad8138d896748077b7cfe94bdadddd338f36a68b16869b1ed"
      } ],
      "clinicalStatus": {
        "coding": [ {
          "system": "http://terminology.hl7.org/CodeSystem/condition-clinical",
          "code": "active",
          "display": "Active"
        } ]
      },
      "verificationStatus": {
        "coding": [ {
          "system": "http://terminology.hl7.org/CodeSystem/condition-ver-status",
          "code": "confirmed",
          "display": "Confirmed"
        }, {
          "system": "http://snomed.info/sct",
          "code": "410605003",
          "display": "Confirmed present (qualifier value)"
        } ]
      },
      "category": [ {
        "coding": [ {
          "system": "http://snomed.info/sct",
          "code": "788415003",
          "display": "Transplant medicine (qualifier value)"
        } ]
      } ],
      "code": {
        "coding": [ {
          "system": "http://fhir.de/CodeSystem/dimdi/icd-10-gm",
          "version": "2021",
          "code": "Z94.1"
        } ]
      },
      "bodySite": [ {
        "coding": [ {
          "system": "http://snomed.info/sct",
          "code": "302509004"
        } ]
      } ],
      "subject": {
        "reference": "Patient/7a78511c2ce57c68d66d5ec5ddf39fe2ca7a9445b2e4c719f4e189efbe89cddd"
      },
      "encounter": {
        "reference": "Encounter/d59baec720d1fb011b2384d80405ece9c51ad478ae28f6bd49b4aabc40a83f19"
      },
      "_recordedDate": {
        "extension": [ {
          "url": "http://hl7.org/fhir/StructureDefinition/data-absent-reason",
          "valueCode": "unknown"
        } ]
      }
    },
    "request": {
      "method": "POST",
      "url": "Condition",
      "ifNoneExist": "identifier=https://mein.krankenhaus.de/fhir/NamingSystem/conditionId|a4ce86bd30e44462c3fefe8e1bb2a009c23e685fb36ca0ea8bf0539770aab11c"
    }
  }, {
    "fullUrl": "Condition/0c110a43308281e32476ab98c5b9edd72213d46ac8d5f90d52c853b45315b1d9",
    "resource": {
      "resourceType": "Condition",
      "meta": {
        "profile": [ "https://www.netzwerk-universitaetsmedizin.de/fhir/StructureDefinition/organ-recipient" ]
      },
      "modifierExtension": [ {
        "url": "https://www.netzwerk-universitaetsmedizin.de/fhir/StructureDefinition/uncertainty-of-presence",
        "valueCodeableConcept": {
          "coding": [ {
            "system": "http://snomed.info/sct",
            "code": "261665006",
            "display": "Unknown (qualifier value)"
          } ],
          "text": "Presence unknown."
        }
      } ],
      "identifier": [ {
        "system": "https://mein.krankenhaus.de/fhir/NamingSystem/conditionId",
        "value": "108ad338300206ab551a5311fe989a718dc3a84a2d30bdb57d24854311554b50"
      } ],
      "category": [ {
        "coding": [ {
          "system": "http://snomed.info/sct",
          "code": "788415003",
          "display": "Transplant medicine (qualifier value)"
        } ]
      } ],
      "code": {
        "coding": [ {
          "system": "http://fhir.de/CodeSystem/dimdi/icd-10-gm",
          "version": "2021",
          "code": "Z94.2"
        } ]
      },
      "bodySite": [ {
        "coding": [ {
          "system": "http://snomed.info/sct",
          "code": "181216001"
        } ]
      } ],
      "subject": {
        "reference": "Patient/7a78511c2ce57c68d66d5ec5ddf39fe2ca7a9445b2e4c719f4e189efbe89cddd"
      },
      "encounter": {
        "reference": "Encounter/d59baec720d1fb011b2384d80405ece9c51ad478ae28f6bd49b4aabc40a83f19"
      },
      "_recordedDate": {
        "extension": [ {
          "url": "http://hl7.org/fhir/StructureDefinition/data-absent-reason",
          "valueCode": "unknown"
        } ]
      }
    },
    "request": {
      "method": "POST",
      "url": "Condition",
      "ifNoneExist": "identifier=https://mein.krankenhaus.de/fhir/NamingSystem/conditionId|0c110a43308281e32476ab98c5b9edd72213d46ac8d5f90d52c853b45315b1d9"
    }
  }, {
    "fullUrl": "Condition/b5558dee002a2ed6ae54a49e41ddd8a72ceafe69ecdc766905878aabc009912a",
    "resource": {
      "resourceType": "Condition",
      "meta": {
        "profile": [ "https://www.netzwerk-universitaetsmedizin.de/fhir/StructureDefinition/organ-recipient" ]
      },
      "modifierExtension": [ {
        "url": "https://www.netzwerk-universitaetsmedizin.de/fhir/StructureDefinition/uncertainty-of-presence",
        "valueCodeableConcept": {
          "coding": [ {
            "system": "http://snomed.info/sct",
            "code": "261665006",
            "display": "Unknown (qualifier value)"
          } ],
          "text": "Presence unknown."
        }
      } ],
      "identifier": [ {
        "system": "https://mein.krankenhaus.de/fhir/NamingSystem/conditionId",
        "value": "85de044b09708f026a0baf01032b9d826beb96efc9168d09d1ea45915e6663ca"
      } ],
      "category": [ {
        "coding": [ {
          "system": "http://snomed.info/sct",
          "code": "788415003",
          "display": "Transplant medicine (qualifier value)"
        } ]
      } ],
      "code": {
        "coding": [ {
          "system": "http://fhir.de/CodeSystem/dimdi/icd-10-gm",
          "version": "2021",
          "code": "Z94.4"
        } ]
      },
      "bodySite": [ {
        "coding": [ {
          "system": "http://snomed.info/sct",
          "code": "181268008"
        } ]
      } ],
      "subject": {
        "reference": "Patient/7a78511c2ce57c68d66d5ec5ddf39fe2ca7a9445b2e4c719f4e189efbe89cddd"
      },
      "encounter": {
        "reference": "Encounter/d59baec720d1fb011b2384d80405ece9c51ad478ae28f6bd49b4aabc40a83f19"
      },
      "_recordedDate": {
        "extension": [ {
          "url": "http://hl7.org/fhir/StructureDefinition/data-absent-reason",
          "valueCode": "unknown"
        } ]
      }
    },
    "request": {
      "method": "POST",
      "url": "Condition",
      "ifNoneExist": "identifier=https://mein.krankenhaus.de/fhir/NamingSystem/conditionId|b5558dee002a2ed6ae54a49e41ddd8a72ceafe69ecdc766905878aabc009912a"
    }
  }, {
    "fullUrl": "Condition/d1024cb56b0f87e827cd373fb54e2629d666d5709f979a79a61c66789b570075",
    "resource": {
      "resourceType": "Condition",
      "meta": {
        "profile": [ "https://www.netzwerk-universitaetsmedizin.de/fhir/StructureDefinition/organ-recipient" ]
      },
      "modifierExtension": [ {
        "url": "https://www.netzwerk-universitaetsmedizin.de/fhir/StructureDefinition/uncertainty-of-presence",
        "valueCodeableConcept": {
          "coding": [ {
            "system": "http://snomed.info/sct",
            "code": "261665006",
            "display": "Unknown (qualifier value)"
          } ],
          "text": "Presence unknown."
        }
      } ],
      "identifier": [ {
        "system": "https://mein.krankenhaus.de/fhir/NamingSystem/conditionId",
        "value": "ffd3d1b4a3b4aaaf8335b8a87738a31e5c361db28be730fee03de31b262bce58"
      } ],
      "category": [ {
        "coding": [ {
          "system": "http://snomed.info/sct",
          "code": "788415003",
          "display": "Transplant medicine (qualifier value)"
        } ]
      } ],
      "code": {
        "coding": [ {
          "system": "http://fhir.de/CodeSystem/dimdi/icd-10-gm",
          "version": "2021",
          "code": "Z94.0"
        } ]
      },
      "bodySite": [ {
        "coding": [ {
          "system": "http://snomed.info/sct",
          "code": "181414000"
        } ]
      } ],
      "subject": {
        "reference": "Patient/7a78511c2ce57c68d66d5ec5ddf39fe2ca7a9445b2e4c719f4e189efbe89cddd"
      },
      "encounter": {
        "reference": "Encounter/d59baec720d1fb011b2384d80405ece9c51ad478ae28f6bd49b4aabc40a83f19"
      },
      "_recordedDate": {
        "extension": [ {
          "url": "http://hl7.org/fhir/StructureDefinition/data-absent-reason",
          "valueCode": "unknown"
        } ]
      }
    },
    "request": {
      "method": "POST",
      "url": "Condition",
      "ifNoneExist": "identifier=https://mein.krankenhaus.de/fhir/NamingSystem/conditionId|d1024cb56b0f87e827cd373fb54e2629d666d5709f979a79a61c66789b570075"
    }
  }, {
    "fullUrl": "Condition/5e675a767a6c8bebe95ad12a5d445469216c3bc3b7dc96b8e2eb3f23fc9aeef4",
    "resource": {
      "resourceType": "Condition",
      "meta": {
        "profile": [ "https://www.netzwerk-universitaetsmedizin.de/fhir/StructureDefinition/organ-recipient" ]
      },
      "identifier": [ {
        "system": "https://mein.krankenhaus.de/fhir/NamingSystem/conditionId",
        "value": "0732b633112ee01df63ca3b8541077dc9eea5720699adf19480171f6e73134e1"
      } ],
      "verificationStatus": {
        "coding": [ {
          "system": "http://terminology.hl7.org/CodeSystem/condition-ver-status",
          "code": "refuted",
          "display": "Refuted"
        }, {
          "system": "http://snomed.info/sct",
          "code": "410594000",
          "display": "Definitely NOT present (qualifier value)"
        } ]
      },
      "category": [ {
        "coding": [ {
          "system": "http://snomed.info/sct",
          "code": "788415003",
          "display": "Transplant medicine (qualifier value)"
        } ]
      } ],
      "code": {
        "coding": [ {
          "system": "http://fhir.de/CodeSystem/dimdi/icd-10-gm",
          "version": "2021",
          "code": "Z94.88"
        } ]
      },
      "bodySite": [ {
        "coding": [ {
          "system": "http://snomed.info/sct",
          "code": "113276009"
        } ]
      } ],
      "subject": {
        "reference": "Patient/7a78511c2ce57c68d66d5ec5ddf39fe2ca7a9445b2e4c719f4e189efbe89cddd"
      },
      "encounter": {
        "reference": "Encounter/d59baec720d1fb011b2384d80405ece9c51ad478ae28f6bd49b4aabc40a83f19"
      },
      "_recordedDate": {
        "extension": [ {
          "url": "http://hl7.org/fhir/StructureDefinition/data-absent-reason",
          "valueCode": "unknown"
        } ]
      }
    },
    "request": {
      "method": "POST",
      "url": "Condition",
      "ifNoneExist": "identifier=https://mein.krankenhaus.de/fhir/NamingSystem/conditionId|5e675a767a6c8bebe95ad12a5d445469216c3bc3b7dc96b8e2eb3f23fc9aeef4"
    }
  }, {
    "fullUrl": "Condition/351a580a46b3b86f98281e3f92db1cd2c3ac3fe568cb8d36c12d5c0bfe0ecb68",
    "resource": {
      "resourceType": "Condition",
      "meta": {
        "profile": [ "https://www.netzwerk-universitaetsmedizin.de/fhir/StructureDefinition/organ-recipient" ]
      },
      "modifierExtension": [ {
        "url": "https://www.netzwerk-universitaetsmedizin.de/fhir/StructureDefinition/uncertainty-of-presence",
        "valueCodeableConcept": {
          "coding": [ {
            "system": "http://snomed.info/sct",
            "code": "261665006",
            "display": "Unknown (qualifier value)"
          } ],
          "text": "Presence unknown."
        }
      } ],
      "identifier": [ {
        "system": "https://mein.krankenhaus.de/fhir/NamingSystem/conditionId",
        "value": "d91d8712bd73c9dce3604a0953b51175f311e9abf84033e64aa1de36ec80554e"
      } ],
      "category": [ {
        "coding": [ {
          "system": "http://snomed.info/sct",
          "code": "788415003",
          "display": "Transplant medicine (qualifier value)"
        } ]
      } ],
      "code": {
        "coding": [ {
          "system": "http://fhir.de/CodeSystem/dimdi/icd-10-gm",
          "version": "2021",
          "code": "Z94.5"
        } ]
      },
      "bodySite": [ {
        "coding": [ {
          "system": "http://snomed.info/sct",
          "code": "119181002"
        } ]
      } ],
      "subject": {
        "reference": "Patient/7a78511c2ce57c68d66d5ec5ddf39fe2ca7a9445b2e4c719f4e189efbe89cddd"
      },
      "encounter": {
        "reference": "Encounter/d59baec720d1fb011b2384d80405ece9c51ad478ae28f6bd49b4aabc40a83f19"
      },
      "_recordedDate": {
        "extension": [ {
          "url": "http://hl7.org/fhir/StructureDefinition/data-absent-reason",
          "valueCode": "unknown"
        } ]
      }
    },
    "request": {
      "method": "POST",
      "url": "Condition",
      "ifNoneExist": "identifier=https://mein.krankenhaus.de/fhir/NamingSystem/conditionId|351a580a46b3b86f98281e3f92db1cd2c3ac3fe568cb8d36c12d5c0bfe0ecb68"
    }
  }, {
    "fullUrl": "Condition/ab5a10fe95205f03b67cd8844467f051db7ba2cc5a2cf670f0959d9cde3508dd",
    "resource": {
      "resourceType": "Condition",
      "meta": {
        "profile": [ "https://www.netzwerk-universitaetsmedizin.de/fhir/StructureDefinition/organ-recipient" ]
      },
      "identifier": [ {
        "system": "https://mein.krankenhaus.de/fhir/NamingSystem/conditionId",
        "value": "c1bae390d344252080c0bcd4699fef02997f78b916635f0335b94b375d48b0af"
      } ],
      "clinicalStatus": {
        "coding": [ {
          "system": "http://terminology.hl7.org/CodeSystem/condition-clinical",
          "code": "active",
          "display": "Active"
        } ]
      },
      "verificationStatus": {
        "coding": [ {
          "system": "http://terminology.hl7.org/CodeSystem/condition-ver-status",
          "code": "confirmed",
          "display": "Confirmed"
        }, {
          "system": "http://snomed.info/sct",
          "code": "410605003",
          "display": "Confirmed present (qualifier value)"
        } ]
      },
      "category": [ {
        "coding": [ {
          "system": "http://snomed.info/sct",
          "code": "788415003",
          "display": "Transplant medicine (qualifier value)"
        } ]
      } ],
      "code": {
        "coding": [ {
          "system": "http://fhir.de/CodeSystem/dimdi/icd-10-gm",
          "version": "2021",
          "code": "Z94.7"
        } ]
      },
      "bodySite": [ {
        "coding": [ {
          "system": "http://snomed.info/sct",
          "code": "181162001"
        } ]
      } ],
      "subject": {
        "reference": "Patient/7a78511c2ce57c68d66d5ec5ddf39fe2ca7a9445b2e4c719f4e189efbe89cddd"
      },
      "encounter": {
        "reference": "Encounter/d59baec720d1fb011b2384d80405ece9c51ad478ae28f6bd49b4aabc40a83f19"
      },
      "_recordedDate": {
        "extension": [ {
          "url": "http://hl7.org/fhir/StructureDefinition/data-absent-reason",
          "valueCode": "unknown"
        } ]
      }
    },
    "request": {
      "method": "POST",
      "url": "Condition",
      "ifNoneExist": "identifier=https://mein.krankenhaus.de/fhir/NamingSystem/conditionId|ab5a10fe95205f03b67cd8844467f051db7ba2cc5a2cf670f0959d9cde3508dd"
    }
  }, {
    "fullUrl": "Condition/23d3ccbf43c07771e1aeb7148296f53f0917d9cc2cd7f71f46906e6bf99d2017",
    "resource": {
      "resourceType": "Condition",
      "meta": {
        "profile": [ "https://www.netzwerk-universitaetsmedizin.de/fhir/StructureDefinition/organ-recipient" ]
      },
      "modifierExtension": [ {
        "url": "https://www.netzwerk-universitaetsmedizin.de/fhir/StructureDefinition/uncertainty-of-presence",
        "valueCodeableConcept": {
          "coding": [ {
            "system": "http://snomed.info/sct",
            "code": "261665006",
            "display": "Unknown (qualifier value)"
          } ],
          "text": "Presence unknown."
        }
      } ],
      "identifier": [ {
        "system": "https://mein.krankenhaus.de/fhir/NamingSystem/conditionId",
        "value": "a59768f2270054a5613431ea0a8de825921a747c209bdf9b8fce3977a0af1506"
      } ],
      "category": [ {
        "coding": [ {
          "system": "http://snomed.info/sct",
          "code": "788415003",
          "display": "Transplant medicine (qualifier value)"
        } ]
      } ],
      "code": {
        "coding": [ {
          "system": "http://fhir.de/CodeSystem/dimdi/icd-10-gm",
          "version": "2021",
          "code": "Z94.9"
        } ]
      },
      "bodySite": [ {
        "coding": [ {
          "system": "http://snomed.info/sct",
          "code": "41845008"
        } ]
      } ],
      "subject": {
        "reference": "Patient/7a78511c2ce57c68d66d5ec5ddf39fe2ca7a9445b2e4c719f4e189efbe89cddd"
      },
      "encounter": {
        "reference": "Encounter/d59baec720d1fb011b2384d80405ece9c51ad478ae28f6bd49b4aabc40a83f19"
      },
      "_recordedDate": {
        "extension": [ {
          "url": "http://hl7.org/fhir/StructureDefinition/data-absent-reason",
          "valueCode": "unknown"
        } ]
      }
    },
    "request": {
      "method": "POST",
      "url": "Condition",
      "ifNoneExist": "identifier=https://mein.krankenhaus.de/fhir/NamingSystem/conditionId|23d3ccbf43c07771e1aeb7148296f53f0917d9cc2cd7f71f46906e6bf99d2017"
    }
  }, {
    "fullUrl": "Condition/58b5d816181c481889e5efa2eb1e0c994a8d65b65bba42c7ba558d3590a8be75",
    "resource": {
      "resourceType": "Condition",
      "meta": {
        "profile": [ "https://www.netzwerk-universitaetsmedizin.de/fhir/StructureDefinition/organ-recipient" ]
      },
      "identifier": [ {
        "system": "https://mein.krankenhaus.de/fhir/NamingSystem/conditionId",
        "value": "bf526e635a70e5112420a54c3cf04abac0603955c67e27dd65523f43d3e115dc"
      } ],
      "clinicalStatus": {
        "coding": [ {
          "system": "http://terminology.hl7.org/CodeSystem/condition-clinical",
          "code": "active",
          "display": "Active"
        } ]
      },
      "verificationStatus": {
        "coding": [ {
          "system": "http://terminology.hl7.org/CodeSystem/condition-ver-status",
          "code": "confirmed",
          "display": "Confirmed"
        }, {
          "system": "http://snomed.info/sct",
          "code": "410605003",
          "display": "Confirmed present (qualifier value)"
        } ]
      },
      "category": [ {
        "coding": [ {
          "system": "http://snomed.info/sct",
          "code": "788415003",
          "display": "Transplant medicine (qualifier value)"
        } ]
      } ],
      "code": {
        "coding": [ {
          "system": "http://fhir.de/CodeSystem/dimdi/icd-10-gm",
          "version": "2021",
          "code": "Z95.88"
        } ]
      },
      "bodySite": [ {
        "coding": [ {
          "system": "http://snomed.info/sct",
          "code": "181285005"
        } ]
      } ],
      "subject": {
        "reference": "Patient/7a78511c2ce57c68d66d5ec5ddf39fe2ca7a9445b2e4c719f4e189efbe89cddd"
      },
      "encounter": {
        "reference": "Encounter/d59baec720d1fb011b2384d80405ece9c51ad478ae28f6bd49b4aabc40a83f19"
      },
      "_recordedDate": {
        "extension": [ {
          "url": "http://hl7.org/fhir/StructureDefinition/data-absent-reason",
          "valueCode": "unknown"
        } ]
      }
    },
    "request": {
      "method": "POST",
      "url": "Condition",
      "ifNoneExist": "identifier=https://mein.krankenhaus.de/fhir/NamingSystem/conditionId|58b5d816181c481889e5efa2eb1e0c994a8d65b65bba42c7ba558d3590a8be75"
    }
  }, {
    "fullUrl": "Condition/796a10fac9e01501c5a720b553d606c2afc8a5a5b2ae73815062875ab4157a44",
    "resource": {
      "resourceType": "Condition",
      "meta": {
        "profile": [ "https://www.netzwerk-universitaetsmedizin.de/fhir/StructureDefinition/organ-recipient" ]
      },
      "identifier": [ {
        "system": "https://mein.krankenhaus.de/fhir/NamingSystem/conditionId",
        "value": "a2300e5d4a34b47eb0a6592470f396667a2f88224f62c821536c5143f4f7315d"
      } ],
      "verificationStatus": {
        "coding": [ {
          "system": "http://terminology.hl7.org/CodeSystem/condition-ver-status",
          "code": "refuted",
          "display": "Refuted"
        }, {
          "system": "http://snomed.info/sct",
          "code": "410594000",
          "display": "Definitely NOT present (qualifier value)"
        } ]
      },
      "category": [ {
        "coding": [ {
          "system": "http://snomed.info/sct",
          "code": "788415003",
          "display": "Transplant medicine (qualifier value)"
        } ]
      } ],
      "code": {
        "coding": [ {
          "system": "http://fhir.de/CodeSystem/dimdi/icd-10-gm",
          "version": "2021",
          "code": "Z95.5"
        } ]
      },
      "bodySite": [ {
        "coding": [ {
          "system": "http://snomed.info/sct",
          "code": "119206002"
        } ]
      } ],
      "subject": {
        "reference": "Patient/7a78511c2ce57c68d66d5ec5ddf39fe2ca7a9445b2e4c719f4e189efbe89cddd"
      },
      "encounter": {
        "reference": "Encounter/d59baec720d1fb011b2384d80405ece9c51ad478ae28f6bd49b4aabc40a83f19"
      },
      "_recordedDate": {
        "extension": [ {
          "url": "http://hl7.org/fhir/StructureDefinition/data-absent-reason",
          "valueCode": "unknown"
        } ]
      }
    },
    "request": {
      "method": "POST",
      "url": "Condition",
      "ifNoneExist": "identifier=https://mein.krankenhaus.de/fhir/NamingSystem/conditionId|796a10fac9e01501c5a720b553d606c2afc8a5a5b2ae73815062875ab4157a44"
    }
  }, {
    "fullUrl": "Condition/30ce5e149b8a0186e6736d857a0100d12b0818506f0c007f7eb948aee721e930",
    "resource": {
      "resourceType": "Condition",
      "meta": {
        "profile": [ "https://www.netzwerk-universitaetsmedizin.de/fhir/StructureDefinition/organ-recipient" ]
      },
      "identifier": [ {
        "system": "https://mein.krankenhaus.de/fhir/NamingSystem/conditionId",
        "value": "5bd643443fbf3b16a70c32557e14e43f914b0a4e59385a1ffc82f7599e67a054"
      } ],
      "clinicalStatus": {
        "coding": [ {
          "system": "http://terminology.hl7.org/CodeSystem/condition-clinical",
          "code": "active",
          "display": "Active"
        } ]
      },
      "verificationStatus": {
        "coding": [ {
          "system": "http://terminology.hl7.org/CodeSystem/condition-ver-status",
          "code": "confirmed",
          "display": "Confirmed"
        }, {
          "system": "http://snomed.info/sct",
          "code": "410605003",
          "display": "Confirmed present (qualifier value)"
        } ]
      },
      "category": [ {
        "coding": [ {
          "system": "http://snomed.info/sct",
          "code": "788415003",
          "display": "Transplant medicine (qualifier value)"
        } ]
      } ],
      "code": {
        "coding": [ {
          "system": "http://fhir.de/CodeSystem/dimdi/icd-10-gm",
          "version": "2021",
          "code": "Z94.9"
        } ]
      },
      "bodySite": [ {
        "coding": [ {
          "system": "http://snomed.info/sct",
          "code": "8935007"
        } ]
      } ],
      "subject": {
        "reference": "Patient/7a78511c2ce57c68d66d5ec5ddf39fe2ca7a9445b2e4c719f4e189efbe89cddd"
      },
      "encounter": {
        "reference": "Encounter/d59baec720d1fb011b2384d80405ece9c51ad478ae28f6bd49b4aabc40a83f19"
      },
      "_recordedDate": {
        "extension": [ {
          "url": "http://hl7.org/fhir/StructureDefinition/data-absent-reason",
          "valueCode": "unknown"
        } ]
      }
    },
    "request": {
      "method": "POST",
      "url": "Condition",
      "ifNoneExist": "identifier=https://mein.krankenhaus.de/fhir/NamingSystem/conditionId|30ce5e149b8a0186e6736d857a0100d12b0818506f0c007f7eb948aee721e930"
    }
  }, {
    "fullUrl": "Condition/bb9dc129a0dbcde51a4899cae607ef15605f90b7a95bb5534150d397664e8e2c",
    "resource": {
      "resourceType": "Condition",
      "meta": {
        "profile": [ "https://www.netzwerk-universitaetsmedizin.de/fhir/StructureDefinition/organ-recipient" ]
      },
      "identifier": [ {
        "system": "https://mein.krankenhaus.de/fhir/NamingSystem/conditionId",
        "value": "e7b0fa2afe7e77255cd4c5a0e24a1523b109fcd246bcba086e6746abbf2ae2af"
      } ],
      "verificationStatus": {
        "coding": [ {
          "system": "http://terminology.hl7.org/CodeSystem/condition-ver-status",
          "code": "refuted",
          "display": "Refuted"
        }, {
          "system": "http://snomed.info/sct",
          "code": "410594000",
          "display": "Definitely NOT present (qualifier value)"
        } ]
      },
      "category": [ {
        "coding": [ {
          "system": "http://snomed.info/sct",
          "code": "788415003",
          "display": "Transplant medicine (qualifier value)"
        } ]
      } ],
      "code": {
        "coding": [ {
          "system": "http://fhir.de/CodeSystem/dimdi/icd-10-gm",
          "version": "2021",
          "code": "Z94.6"
        } ]
      },
      "bodySite": [ {
        "coding": [ {
          "system": "http://snomed.info/sct",
          "code": "3138006"
        } ]
      } ],
      "subject": {
        "reference": "Patient/7a78511c2ce57c68d66d5ec5ddf39fe2ca7a9445b2e4c719f4e189efbe89cddd"
      },
      "encounter": {
        "reference": "Encounter/d59baec720d1fb011b2384d80405ece9c51ad478ae28f6bd49b4aabc40a83f19"
      },
      "_recordedDate": {
        "extension": [ {
          "url": "http://hl7.org/fhir/StructureDefinition/data-absent-reason",
          "valueCode": "unknown"
        } ]
      }
    },
    "request": {
      "method": "POST",
      "url": "Condition",
      "ifNoneExist": "identifier=https://mein.krankenhaus.de/fhir/NamingSystem/conditionId|bb9dc129a0dbcde51a4899cae607ef15605f90b7a95bb5534150d397664e8e2c"
    }
  }, {
    "fullUrl": "Condition/77b5ae5b525a38d9e390f6a0ec23b258735885545d45d37db32881275edbbf17",
    "resource": {
      "resourceType": "Condition",
      "meta": {
        "profile": [ "https://www.netzwerk-universitaetsmedizin.de/fhir/StructureDefinition/organ-recipient" ]
      },
      "modifierExtension": [ {
        "url": "https://www.netzwerk-universitaetsmedizin.de/fhir/StructureDefinition/uncertainty-of-presence",
        "valueCodeableConcept": {
          "coding": [ {
            "system": "http://snomed.info/sct",
            "code": "261665006",
            "display": "Unknown (qualifier value)"
          } ],
          "text": "Presence unknown."
        }
      } ],
      "identifier": [ {
        "system": "https://mein.krankenhaus.de/fhir/NamingSystem/conditionId",
        "value": "81861ebbe8d42e9348582cf809b5c5aad40c7d55de11466bda840669d96bdfe5"
      } ],
      "category": [ {
        "coding": [ {
          "system": "http://snomed.info/sct",
          "code": "788415003",
          "display": "Transplant medicine (qualifier value)"
        } ]
      } ],
      "code": {
        "coding": [ {
          "system": "http://fhir.de/CodeSystem/dimdi/icd-10-gm",
          "version": "2021",
          "code": "Z94.9"
        } ]
      },
      "bodySite": [ {
        "coding": [ {
          "system": "http://snomed.info/sct",
          "code": "309312004"
        } ]
      } ],
      "subject": {
        "reference": "Patient/7a78511c2ce57c68d66d5ec5ddf39fe2ca7a9445b2e4c719f4e189efbe89cddd"
      },
      "encounter": {
        "reference": "Encounter/d59baec720d1fb011b2384d80405ece9c51ad478ae28f6bd49b4aabc40a83f19"
      },
      "_recordedDate": {
        "extension": [ {
          "url": "http://hl7.org/fhir/StructureDefinition/data-absent-reason",
          "valueCode": "unknown"
        } ]
      }
    },
    "request": {
      "method": "POST",
      "url": "Condition",
      "ifNoneExist": "identifier=https://mein.krankenhaus.de/fhir/NamingSystem/conditionId|77b5ae5b525a38d9e390f6a0ec23b258735885545d45d37db32881275edbbf17"
    }
  }, {
    "fullUrl": "Condition/4dfc7bcfec2730e1c7c19c3622a58e4d8256a5f80c5427c631b6808250746f33",
    "resource": {
      "resourceType": "Condition",
      "meta": {
        "profile": [ "https://www.netzwerk-universitaetsmedizin.de/fhir/StructureDefinition/organ-recipient" ]
      },
      "identifier": [ {
        "system": "https://mein.krankenhaus.de/fhir/NamingSystem/conditionId",
        "value": "3c418c9c0838a621e8219a602787bb5f3dc7b2f6192da898112030e12ca90ac7"
      } ],
      "clinicalStatus": {
        "coding": [ {
          "system": "http://terminology.hl7.org/CodeSystem/condition-clinical",
          "code": "active",
          "display": "Active"
        } ]
      },
      "verificationStatus": {
        "coding": [ {
          "system": "http://terminology.hl7.org/CodeSystem/condition-ver-status",
          "code": "confirmed",
          "display": "Confirmed"
        }, {
          "system": "http://snomed.info/sct",
          "code": "410605003",
          "display": "Confirmed present (qualifier value)"
        } ]
      },
      "category": [ {
        "coding": [ {
          "system": "http://snomed.info/sct",
          "code": "788415003",
          "display": "Transplant medicine (qualifier value)"
        } ]
      } ],
      "code": {
        "coding": [ {
          "system": "http://fhir.de/CodeSystem/dimdi/icd-10-gm",
          "version": "2021",
          "code": "Z94.9"
        } ]
      },
      "bodySite": [ {
        "coding": [ {
          "system": "http://snomed.info/sct",
          "code": "13024002"
        } ]
      } ],
      "subject": {
        "reference": "Patient/7a78511c2ce57c68d66d5ec5ddf39fe2ca7a9445b2e4c719f4e189efbe89cddd"
      },
      "encounter": {
        "reference": "Encounter/d59baec720d1fb011b2384d80405ece9c51ad478ae28f6bd49b4aabc40a83f19"
      },
      "_recordedDate": {
        "extension": [ {
          "url": "http://hl7.org/fhir/StructureDefinition/data-absent-reason",
          "valueCode": "unknown"
        } ]
      }
    },
    "request": {
      "method": "POST",
      "url": "Condition",
      "ifNoneExist": "identifier=https://mein.krankenhaus.de/fhir/NamingSystem/conditionId|4dfc7bcfec2730e1c7c19c3622a58e4d8256a5f80c5427c631b6808250746f33"
    }
  }, {
    "fullUrl": "Condition/6e420cae53c5a38d793eeef31713b4589711bd4c58b41a8d716b68bc4afe5eb8",
    "resource": {
      "resourceType": "Condition",
      "meta": {
        "profile": [ "https://www.netzwerk-universitaetsmedizin.de/fhir/StructureDefinition/diabetes-mellitus" ]
      },
      "identifier": [ {
        "system": "https://mein.krankenhaus.de/fhir/NamingSystem/conditionId",
        "value": "16df77cce01a56dd7d217beb03d1d72e9c840600482c00018790ae542cb7c797"
      } ],
      "verificationStatus": {
        "coding": [ {
          "system": "http://terminology.hl7.org/CodeSystem/condition-ver-status",
          "code": "refuted",
          "display": "Refuted"
        }, {
          "system": "http://snomed.info/sct",
          "code": "410594000",
          "display": "Definitely NOT present (qualifier value)"
        } ]
      },
      "category": [ {
        "coding": [ {
          "system": "http://snomed.info/sct",
          "code": "408475000",
          "display": "Diabetic medicine (qualifier value)"
        } ]
      } ],
      "code": {
        "coding": [ {
          "system": "http://fhir.de/CodeSystem/dimdi/icd-10-gm",
          "version": "2021",
          "code": "E14"
        }, {
          "system": "http://snomed.info/sct",
          "code": "73211009"
        } ]
      },
      "subject": {
        "reference": "Patient/7a78511c2ce57c68d66d5ec5ddf39fe2ca7a9445b2e4c719f4e189efbe89cddd"
      },
      "encounter": {
        "reference": "Encounter/d59baec720d1fb011b2384d80405ece9c51ad478ae28f6bd49b4aabc40a83f19"
      },
      "_recordedDate": {
        "extension": [ {
          "url": "http://hl7.org/fhir/StructureDefinition/data-absent-reason",
          "valueCode": "unknown"
        } ]
      }
    },
    "request": {
      "method": "POST",
      "url": "Condition",
      "ifNoneExist": "identifier=https://mein.krankenhaus.de/fhir/NamingSystem/conditionId|6e420cae53c5a38d793eeef31713b4589711bd4c58b41a8d716b68bc4afe5eb8"
    }
  }, {
    "fullUrl": "Condition/b4ba04995d1d1d535790cbd75969b5a151f9411a056105914d82105f9432c9d2",
    "resource": {
      "resourceType": "Condition",
      "meta": {
        "profile": [ "https://www.netzwerk-universitaetsmedizin.de/fhir/StructureDefinition/malignant-neoplastic-disease" ]
      },
      "modifierExtension": [ {
        "url": "https://www.netzwerk-universitaetsmedizin.de/fhir/StructureDefinition/uncertainty-of-presence",
        "valueCodeableConcept": {
          "coding": [ {
            "system": "http://snomed.info/sct",
            "code": "261665006",
            "display": "Unknown (qualifier value)"
          } ],
          "text": "Presence unknown."
        }
      } ],
      "identifier": [ {
        "system": "https://mein.krankenhaus.de/fhir/NamingSystem/conditionId",
        "value": "20194decea91e0b7ba19e4b47ed86b78d50e49a90419b146698820f3961d5d2d"
      } ],
      "category": [ {
        "coding": [ {
          "system": "http://snomed.info/sct",
          "code": "394593009",
          "display": "Medical oncology (qualifier value)"
        } ]
      } ],
      "code": {
        "coding": [ {
          "system": "http://fhir.de/CodeSystem/dimdi/icd-10-gm",
          "version": "2021",
          "code": "C80.9"
        }, {
          "system": "http://snomed.info/sct",
          "code": "363346000"
        } ]
      },
      "subject": {
        "reference": "Patient/7a78511c2ce57c68d66d5ec5ddf39fe2ca7a9445b2e4c719f4e189efbe89cddd"
      },
      "encounter": {
        "reference": "Encounter/d59baec720d1fb011b2384d80405ece9c51ad478ae28f6bd49b4aabc40a83f19"
      },
      "_recordedDate": {
        "extension": [ {
          "url": "http://hl7.org/fhir/StructureDefinition/data-absent-reason",
          "valueCode": "unknown"
        } ]
      }
    },
    "request": {
      "method": "POST",
      "url": "Condition",
      "ifNoneExist": "identifier=https://mein.krankenhaus.de/fhir/NamingSystem/conditionId|b4ba04995d1d1d535790cbd75969b5a151f9411a056105914d82105f9432c9d2"
    }
  }, {
    "fullUrl": "Condition/2e1367e99af0eb94b9692cf7d384f53d474f50d61b84271a26feecdcefe7616f",
    "resource": {
      "resourceType": "Condition",
      "meta": {
        "profile": [ "https://www.netzwerk-universitaetsmedizin.de/fhir/StructureDefinition/gastrointestinal-ulcers" ]
      },
      "modifierExtension": [ {
        "url": "https://www.netzwerk-universitaetsmedizin.de/fhir/StructureDefinition/uncertainty-of-presence",
        "valueCodeableConcept": {
          "coding": [ {
            "system": "http://snomed.info/sct",
            "code": "261665006",
            "display": "Unknown (qualifier value)"
          } ],
          "text": "Presence unknown."
        }
      } ],
      "identifier": [ {
        "system": "https://mein.krankenhaus.de/fhir/NamingSystem/conditionId",
        "value": "57f887749a92b215f6d91c6499f673fe564f10e7105a229eb6f3682f533ebda0"
      } ],
      "category": [ {
        "coding": [ {
          "system": "http://snomed.info/sct",
          "code": "394584008",
          "display": "Gastroenterology (qualifier value))"
        } ]
      } ],
      "code": {
        "coding": [ {
          "system": "http://fhir.de/CodeSystem/dimdi/icd-10-gm",
          "version": "2021",
          "code": "K28"
        }, {
          "system": "http://snomed.info/sct",
          "code": "40845000"
        } ]
      },
      "subject": {
        "reference": "Patient/7a78511c2ce57c68d66d5ec5ddf39fe2ca7a9445b2e4c719f4e189efbe89cddd"
      },
      "encounter": {
        "reference": "Encounter/d59baec720d1fb011b2384d80405ece9c51ad478ae28f6bd49b4aabc40a83f19"
      },
      "_recordedDate": {
        "extension": [ {
          "url": "http://hl7.org/fhir/StructureDefinition/data-absent-reason",
          "valueCode": "unknown"
        } ]
      }
    },
    "request": {
      "method": "POST",
      "url": "Condition",
      "ifNoneExist": "identifier=https://mein.krankenhaus.de/fhir/NamingSystem/conditionId|2e1367e99af0eb94b9692cf7d384f53d474f50d61b84271a26feecdcefe7616f"
    }
  }, {
    "fullUrl": "Observation/3278a953fff878cea318e34c27d06220c0c01f948e4395bae3616a28395e698d",
    "resource": {
      "resourceType": "Observation",
      "meta": {
        "profile": [ "https://www.netzwerk-universitaetsmedizin.de/fhir/StructureDefinition/smoking-status" ]
      },
      "identifier": [ {
        "system": "https://mein.krankenhaus.de/fhir/NamingSystem/observationId",
        "value": "326a19fd17d70421210eeadcb31abcbab7f130925225979c27c12400c56123ad"
      } ],
      "status": "final",
      "category": [ {
        "coding": [ {
          "system": "http://terminology.hl7.org/CodeSystem/observation-category",
          "code": "social-history",
          "display": "Social History"
        } ]
      } ],
      "code": {
        "coding": [ {
          "system": "http://loinc.org",
          "code": "72166-2"
        } ]
      },
      "subject": {
        "reference": "Patient/7a78511c2ce57c68d66d5ec5ddf39fe2ca7a9445b2e4c719f4e189efbe89cddd"
      },
      "encounter": {
        "reference": "Encounter/d59baec720d1fb011b2384d80405ece9c51ad478ae28f6bd49b4aabc40a83f19"
      },
      "_effectiveDateTime": {
        "extension": [ {
          "url": "http://hl7.org/fhir/StructureDefinition/data-absent-reason",
          "valueCode": "unknown"
        } ]
      },
      "valueCodeableConcept": {
        "coding": [ {
          "system": "http://loinc.org",
          "code": "LA15920-4"
        } ]
      }
    },
    "request": {
      "method": "POST",
      "url": "Observation",
      "ifNoneExist": "identifier=https://mein.krankenhaus.de/fhir/NamingSystem/observationId|3278a953fff878cea318e34c27d06220c0c01f948e4395bae3616a28395e698d"
    }
  }, {
    "fullUrl": "Procedure/07a2b6e9aec4c3f55042c35d4dc42d233e610bc5dc3e10428d790ceb4434dbb9",
    "resource": {
      "resourceType": "Procedure",
      "meta": {
        "profile": [ "https://www.netzwerk-universitaetsmedizin.de/fhir/StructureDefinition/respiratory-therapies" ]
      },
      "identifier": [ {
        "system": "https://mein.krankenhaus.de/fhir/NamingSystem/procedureId",
        "value": "db25eeacd7bb5816852bc9b06885e0f2bbe584d49eda77ce2a18c4ccabee0c2d"
      } ],
      "status": "unknown",
      "category": {
        "coding": [ {
          "system": "http://snomed.info/sct",
          "code": "277132007",
          "display": "Therapeutic procedure (procedure)"
        } ]
      },
      "code": {
        "coding": [ {
          "system": "http://snomed.info/sct",
          "code": "53950000"
        } ]
      },
      "subject": {
        "reference": "Patient/7a78511c2ce57c68d66d5ec5ddf39fe2ca7a9445b2e4c719f4e189efbe89cddd"
      },
      "encounter": {
        "reference": "Encounter/d59baec720d1fb011b2384d80405ece9c51ad478ae28f6bd49b4aabc40a83f19"
      },
      "_performedDateTime": {
        "extension": [ {
          "url": "http://hl7.org/fhir/StructureDefinition/data-absent-reason",
          "valueCode": "unknown"
        } ]
      }
    },
    "request": {
      "method": "POST",
      "url": "Procedure",
      "ifNoneExist": "identifier=https://mein.krankenhaus.de/fhir/NamingSystem/procedureId|07a2b6e9aec4c3f55042c35d4dc42d233e610bc5dc3e10428d790ceb4434dbb9"
    }
  }, {
    "fullUrl": "Immunization/218f01664e0f021ff969c2e633fa85c836a043b753a9a98b88e37395232f8a70",
    "resource": {
      "resourceType": "Immunization",
      "meta": {
        "profile": [ "https://www.netzwerk-universitaetsmedizin.de/fhir/StructureDefinition/immunization" ]
      },
      "identifier": [ {
        "system": "https://mein.krankenhaus.de/fhir/NamingSystem/immunizationId",
        "value": "e2e38d44141f022804b59572d41a06a956b7fbd85362c31c62048041fb296ea2"
      } ],
      "status": "completed",
      "vaccineCode": {
        "coding": [ {
          "system": "http://snomed.info/sct",
          "code": "836398006"
        } ]
      },
      "patient": {
        "reference": "Patient/7a78511c2ce57c68d66d5ec5ddf39fe2ca7a9445b2e4c719f4e189efbe89cddd"
      },
      "encounter": {
        "reference": "Encounter/d59baec720d1fb011b2384d80405ece9c51ad478ae28f6bd49b4aabc40a83f19"
      },
      "occurrenceDateTime": "2020-08-03",
      "protocolApplied": [ {
        "targetDisease": [ {
          "coding": [ {
            "system": "http://snomed.info/sct",
            "code": "16814004"
          } ]
        } ],
        "_doseNumberString": {
          "extension": [ {
            "url": "http://hl7.org/fhir/StructureDefinition/data-absent-reason",
            "valueCode": "unknown"
          } ]
        }
      } ]
    },
    "request": {
      "method": "POST",
      "url": "Immunization",
      "ifNoneExist": "identifier=https://mein.krankenhaus.de/fhir/NamingSystem/immunizationId|218f01664e0f021ff969c2e633fa85c836a043b753a9a98b88e37395232f8a70"
    }
  }, {
    "fullUrl": "Immunization/023f595f1e72f7f069c4da1dc264be75b54fd55256b13a10f4f971d7bb283ac7",
    "resource": {
      "resourceType": "Immunization",
      "meta": {
        "profile": [ "https://www.netzwerk-universitaetsmedizin.de/fhir/StructureDefinition/immunization" ]
      },
      "identifier": [ {
        "system": "https://mein.krankenhaus.de/fhir/NamingSystem/immunizationId",
        "value": "a21fd45d5042065c8b8c778b9276eb54f9070fc1a4d40cb35aebc61f5c463c00"
      } ],
      "status": "not-done",
      "vaccineCode": {
        "coding": [ {
          "system": "http://snomed.info/sct",
          "code": "836402002"
        } ]
      },
      "patient": {
        "reference": "Patient/7a78511c2ce57c68d66d5ec5ddf39fe2ca7a9445b2e4c719f4e189efbe89cddd"
      },
      "encounter": {
        "reference": "Encounter/d59baec720d1fb011b2384d80405ece9c51ad478ae28f6bd49b4aabc40a83f19"
      },
      "_occurrenceDateTime": {
        "extension": [ {
          "url": "http://hl7.org/fhir/StructureDefinition/data-absent-reason",
          "valueCode": "unknown"
        } ]
      },
      "protocolApplied": [ {
        "targetDisease": [ {
          "coding": [ {
            "system": "http://snomed.info/sct",
            "code": "56717001"
          } ]
        } ],
        "_doseNumberString": {
          "extension": [ {
            "url": "http://hl7.org/fhir/StructureDefinition/data-absent-reason",
            "valueCode": "unknown"
          } ]
        }
      } ]
    },
    "request": {
      "method": "POST",
      "url": "Immunization",
      "ifNoneExist": "identifier=https://mein.krankenhaus.de/fhir/NamingSystem/immunizationId|023f595f1e72f7f069c4da1dc264be75b54fd55256b13a10f4f971d7bb283ac7"
    }
  }, {
    "fullUrl": "Immunization/c5968c045aac73964d3b4bea7bd345ec37c1ea4483ac986abe923716b0faf3c4",
    "resource": {
      "resourceType": "Immunization",
      "meta": {
        "profile": [ "https://www.netzwerk-universitaetsmedizin.de/fhir/StructureDefinition/immunization" ]
      },
      "identifier": [ {
        "system": "https://mein.krankenhaus.de/fhir/NamingSystem/immunizationId",
        "value": "20f1ace33925e0d0cf1d48ee9a3a9c64055aad9f8a2f30790293239a18553668"
      } ],
      "status": "not-done",
      "vaccineCode": {
        "coding": [ {
          "system": "http://snomed.info/sct",
          "code": "1119349007"
        } ]
      },
      "patient": {
        "reference": "Patient/7a78511c2ce57c68d66d5ec5ddf39fe2ca7a9445b2e4c719f4e189efbe89cddd"
      },
      "encounter": {
        "reference": "Encounter/d59baec720d1fb011b2384d80405ece9c51ad478ae28f6bd49b4aabc40a83f19"
      },
      "_occurrenceDateTime": {
        "extension": [ {
          "url": "http://hl7.org/fhir/StructureDefinition/data-absent-reason",
          "valueCode": "unknown"
        } ]
      },
      "protocolApplied": [ {
        "targetDisease": [ {
          "coding": [ {
            "system": "http://snomed.info/sct",
            "code": "840539006"
          } ]
        } ],
        "_doseNumberString": {
          "extension": [ {
            "url": "http://hl7.org/fhir/StructureDefinition/data-absent-reason",
            "valueCode": "unknown"
          } ]
        }
      } ]
    },
    "request": {
      "method": "POST",
      "url": "Immunization",
      "ifNoneExist": "identifier=https://mein.krankenhaus.de/fhir/NamingSystem/immunizationId|c5968c045aac73964d3b4bea7bd345ec37c1ea4483ac986abe923716b0faf3c4"
    }
  }, {
    "fullUrl": "Immunization/4e665d693a6c31b1f35d1f8b3ef6eaca121f7635d6c031b0eb4bddbf8516ac03",
    "resource": {
      "resourceType": "Immunization",
      "meta": {
        "profile": [ "https://www.netzwerk-universitaetsmedizin.de/fhir/StructureDefinition/immunization" ]
      },
      "identifier": [ {
        "system": "https://mein.krankenhaus.de/fhir/NamingSystem/immunizationId",
        "value": "e751850725368747a18061fdfe6954d5736bd6727ce808b8bc3452500ab43c43"
      } ],
      "status": "completed",
      "vaccineCode": {
        "coding": [ {
          "system": "http://hl7.org/fhir/uv/ips/CodeSystem/absent-unknown-uv-ips",
          "code": "no-known-immunizations",
          "display": "vaccineCode unknown"
        } ]
      },
      "patient": {
        "reference": "Patient/7a78511c2ce57c68d66d5ec5ddf39fe2ca7a9445b2e4c719f4e189efbe89cddd"
      },
      "encounter": {
        "reference": "Encounter/d59baec720d1fb011b2384d80405ece9c51ad478ae28f6bd49b4aabc40a83f19"
      },
      "_occurrenceDateTime": {
        "extension": [ {
          "url": "http://hl7.org/fhir/StructureDefinition/data-absent-reason",
          "valueCode": "unknown"
        } ]
      },
      "protocolApplied": [ {
        "targetDisease": [ {
          "coding": [ {
            "system": "http://snomed.info/sct",
            "code": "64572001"
          } ]
        } ],
        "_doseNumberString": {
          "extension": [ {
            "url": "http://hl7.org/fhir/StructureDefinition/data-absent-reason",
            "valueCode": "unknown"
          } ]
        }
      } ]
    },
    "request": {
      "method": "POST",
      "url": "Immunization",
      "ifNoneExist": "identifier=https://mein.krankenhaus.de/fhir/NamingSystem/immunizationId|4e665d693a6c31b1f35d1f8b3ef6eaca121f7635d6c031b0eb4bddbf8516ac03"
    }
  }, {
    "fullUrl": "Consent/ce216b289ef02c8ac92a87afe65937535ce36455ec4a340bbe029f3d7325439c",
    "resource": {
      "resourceType": "Consent",
      "meta": {
        "profile": [ "https://www.netzwerk-universitaetsmedizin.de/fhir/StructureDefinition/do-not-resuscitate-order" ]
      },
      "identifier": [ {
        "system": "https://mein.krankenhaus.de/fhir/NamingSystem/consentId",
        "value": "956b79468706ef61bc013dc27b91d39bf7bf626a65f8f9d4cc353a3aa5c7451f"
      } ],
      "status": "active",
      "scope": {
        "coding": [ {
          "system": "http://terminology.hl7.org/CodeSystem/consentscope",
          "code": "adr",
          "display": "Advanced Care Directive"
        } ]
      },
      "category": [ {
        "coding": [ {
          "system": "http://terminology.hl7.org/CodeSystem/consentcategorycodes",
          "code": "dnr",
          "display": "Do Not Resuscitate"
        } ]
      } ],
      "patient": {
        "reference": "Patient/7a78511c2ce57c68d66d5ec5ddf39fe2ca7a9445b2e4c719f4e189efbe89cddd"
      },
      "policy": [ {
        "uri": "https://www.aerzteblatt.de/archiv/65440/DNR-Anordnungen-Das-fehlende-Bindeglied"
      } ],
      "provision": {
        "code": [ {
          "coding": [ {
            "system": "http://snomed.info/sct",
            "code": "304252001"
          } ]
        } ]
      }
    },
    "request": {
      "method": "POST",
      "url": "Consent",
      "ifNoneExist": "identifier=https://mein.krankenhaus.de/fhir/NamingSystem/consentId|ce216b289ef02c8ac92a87afe65937535ce36455ec4a340bbe029f3d7325439c"
    }
  }, {
    "fullUrl": "Observation/142b3ab946eb21d397bcf3574779cdfddd84ec8f0ccf44f46202505f3e843ba4",
    "resource": {
      "resourceType": "Observation",
      "meta": {
        "profile": [ "https://www.netzwerk-universitaetsmedizin.de/fhir/StructureDefinition/pregnancy-status" ]
      },
      "identifier": [ {
        "type": {
          "coding": [ {
            "system": "http://terminology.hl7.org/CodeSystem/v2-0203",
            "code": "OBI",
            "display": "Observation Instance Identifier"
          } ]
        },
        "system": "https://mein.krankenhaus.de/fhir/NamingSystem/observationId",
        "value": "af2814102765464b3d5f482c7501c273bc1cc4f0eb45136774a98cb62b06c0ea",
        "assigner": {
          "reference": "Organization/3a4f3433bce81181bad2d8e0b8fafccf7dc800bc06f29be73dcb38b750a48f9a"
        }
      } ],
      "status": "final",
      "category": [ {
        "coding": [ {
          "system": "http://terminology.hl7.org/CodeSystem/observation-category",
          "code": "social-history",
          "display": "Social History"
        } ]
      } ],
      "code": {
        "coding": [ {
          "system": "http://loinc.org",
          "code": "82810-3"
        } ],
        "text": "Pregnancy status"
      },
      "subject": {
        "reference": "Patient/7a78511c2ce57c68d66d5ec5ddf39fe2ca7a9445b2e4c719f4e189efbe89cddd"
      },
      "encounter": {
        "reference": "Encounter/d59baec720d1fb011b2384d80405ece9c51ad478ae28f6bd49b4aabc40a83f19"
      },
      "_effectiveDateTime": {
        "extension": [ {
          "url": "http://hl7.org/fhir/StructureDefinition/data-absent-reason",
          "valueCode": "unknown"
        } ]
      },
      "valueCodeableConcept": {
        "coding": [ {
          "system": "http://loinc.org",
          "code": "LA15173-0"
        }, {
          "system": "http://snomed.info/sct",
          "code": "77386006"
        } ]
      }
    },
    "request": {
      "method": "POST",
      "url": "Observation",
      "ifNoneExist": "identifier=https://mein.krankenhaus.de/fhir/NamingSystem/observationId|142b3ab946eb21d397bcf3574779cdfddd84ec8f0ccf44f46202505f3e843ba4"
    }
  }, {
    "fullUrl": "Observation/b3a018275e991be899a9f4b5a8d35097e0581868e3095aaf0d9f4388928d11be",
    "resource": {
      "resourceType": "Observation",
      "meta": {
        "profile": [ "https://www.netzwerk-universitaetsmedizin.de/fhir/StructureDefinition/sex-assigned-at-birth" ]
      },
      "identifier": [ {
        "system": "https://mein.krankenhaus.de/fhir/NamingSystem/observationId",
        "value": "44476cc922faae9a964a54094e107d70c6dbe5a09121d867da533d5e0ab3aacc"
      } ],
      "status": "final",
      "category": [ {
        "coding": [ {
          "system": "http://terminology.hl7.org/CodeSystem/observation-category",
          "code": "social-history",
          "display": "Social History"
        } ]
      } ],
      "code": {
        "coding": [ {
          "system": "http://loinc.org",
          "code": "76689-9"
        } ]
      },
      "subject": {
        "reference": "Patient/7a78511c2ce57c68d66d5ec5ddf39fe2ca7a9445b2e4c719f4e189efbe89cddd"
      },
      "encounter": {
        "reference": "Encounter/d59baec720d1fb011b2384d80405ece9c51ad478ae28f6bd49b4aabc40a83f19"
      },
      "_effectiveDateTime": {
        "extension": [ {
          "url": "http://hl7.org/fhir/StructureDefinition/data-absent-reason",
          "valueCode": "unknown"
        } ]
      },
      "valueCodeableConcept": {
        "coding": [ {
          "system": "http://hl7.org/fhir/administrative-gender",
          "code": "female"
        } ]
      }
    },
    "request": {
      "method": "POST",
      "url": "Observation",
      "ifNoneExist": "identifier=https://mein.krankenhaus.de/fhir/NamingSystem/observationId|b3a018275e991be899a9f4b5a8d35097e0581868e3095aaf0d9f4388928d11be"
    }
  }, {
    "fullUrl": "Observation/26c9e882d7628cfae0d38ff42f44f0698952e26947eed723dd765bb26ddb07c4",
    "resource": {
      "resourceType": "Observation",
      "meta": {
        "profile": [ "https://www.netzwerk-universitaetsmedizin.de/fhir/StructureDefinition/frailty-score" ]
      },
      "identifier": [ {
        "type": {
          "coding": [ {
            "system": "http://terminology.hl7.org/CodeSystem/v2-0203",
            "code": "OBI",
            "display": "Observation Instance Identifier"
          } ]
        },
        "system": "https://mein.krankenhaus.de/fhir/NamingSystem/observationId",
        "value": "e4606585449b31045722f64c8d9c2b22909587d2c10b6f88ae828ec87d42aacd",
        "assigner": {
          "reference": "Organization/3a4f3433bce81181bad2d8e0b8fafccf7dc800bc06f29be73dcb38b750a48f9a"
        }
      } ],
      "status": "final",
      "category": [ {
        "coding": [ {
          "system": "http://terminology.hl7.org/CodeSystem/observation-category",
          "code": "survey",
          "display": "Survey"
        } ]
      } ],
      "code": {
        "coding": [ {
          "system": "http://snomed.info/sct",
          "code": "763264000"
        } ],
        "text": "Frailty Scale Score"
      },
      "subject": {
        "reference": "Patient/7a78511c2ce57c68d66d5ec5ddf39fe2ca7a9445b2e4c719f4e189efbe89cddd"
      },
      "encounter": {
        "reference": "Encounter/d59baec720d1fb011b2384d80405ece9c51ad478ae28f6bd49b4aabc40a83f19"
      },
      "_effectiveDateTime": {
        "extension": [ {
          "url": "http://hl7.org/fhir/StructureDefinition/data-absent-reason",
          "valueCode": "unknown"
        } ]
      },
      "valueCodeableConcept": {
        "coding": [ {
          "system": "https://www.netzwerk-universitaetsmedizin.de/fhir/CodeSystem/frailty-score",
          "code": "3"
        } ]
      },
      "method": {
        "coding": [ {
          "system": "http://snomed.info/sct",
          "code": "445414007",
          "display": "Canadian Study of Health and Aging clinical frailty scale"
        } ]
      }
    },
    "request": {
      "method": "POST",
      "url": "Observation",
      "ifNoneExist": "identifier=https://mein.krankenhaus.de/fhir/NamingSystem/observationId|26c9e882d7628cfae0d38ff42f44f0698952e26947eed723dd765bb26ddb07c4"
    }
  }, {
    "fullUrl": "Observation/9de9fc8476f0d3b35c25526c855ad7254e37879996f881e1882cc4b4b3dcaeed",
    "resource": {
      "resourceType": "Observation",
      "meta": {
        "profile": [ "https://www.netzwerk-universitaetsmedizin.de/fhir/StructureDefinition/body-weight" ]
      },
      "identifier": [ {
        "type": {
          "coding": [ {
            "system": "http://terminology.hl7.org/CodeSystem/v2-0203",
            "code": "OBI",
            "display": "Observation Instance Identifier"
          } ]
        },
        "system": "https://mein.krankenhaus.de/fhir/NamingSystem/observationId",
        "value": "5f7162322c93548125b16aa261357e536e9157e30cbb506e035de59b858677fe",
        "assigner": {
          "reference": "Organization/3a4f3433bce81181bad2d8e0b8fafccf7dc800bc06f29be73dcb38b750a48f9a"
        }
      } ],
      "status": "final",
      "category": [ {
        "coding": [ {
          "system": "http://terminology.hl7.org/CodeSystem/observation-category",
          "code": "vital-signs",
          "display": "Vital Signs"
        } ]
      } ],
      "code": {
        "coding": [ {
          "system": "http://loinc.org",
          "code": "29463-7"
        }, {
          "system": "http://snomed.info/sct",
          "code": "27113001"
        } ],
        "text": "Body Weight"
      },
      "subject": {
        "reference": "Patient/7a78511c2ce57c68d66d5ec5ddf39fe2ca7a9445b2e4c719f4e189efbe89cddd"
      },
      "encounter": {
        "reference": "Encounter/d59baec720d1fb011b2384d80405ece9c51ad478ae28f6bd49b4aabc40a83f19"
      },
      "_effectiveDateTime": {
        "extension": [ {
          "url": "http://hl7.org/fhir/StructureDefinition/data-absent-reason",
          "valueCode": "unknown"
        } ]
      },
      "valueQuantity": {
        "value": 4,
        "unit": "kilogram",
        "system": "http://unitsofmeasure.org",
        "code": "kg"
      }
    },
    "request": {
      "method": "POST",
      "url": "Observation",
      "ifNoneExist": "identifier=https://mein.krankenhaus.de/fhir/NamingSystem/observationId|9de9fc8476f0d3b35c25526c855ad7254e37879996f881e1882cc4b4b3dcaeed"
    }
  }, {
    "fullUrl": "Observation/6f1c1e6b50acc254a6b1af5d2168980661ea3ca02a9a006aed986fdf036e11c9",
    "resource": {
      "resourceType": "Observation",
      "meta": {
        "profile": [ "https://www.netzwerk-universitaetsmedizin.de/fhir/StructureDefinition/body-height" ]
      },
      "identifier": [ {
        "type": {
          "coding": [ {
            "system": "http://terminology.hl7.org/CodeSystem/v2-0203",
            "code": "OBI",
            "display": "Observation Instance Identifier"
          } ]
        },
        "system": "https://mein.krankenhaus.de/fhir/NamingSystem/observationId",
        "value": "8537c0ed8f2ec2655be5724c8f2986343d19c12d88018f3cc5ac4d8414d92a5d",
        "assigner": {
          "reference": "Organization/3a4f3433bce81181bad2d8e0b8fafccf7dc800bc06f29be73dcb38b750a48f9a"
        }
      } ],
      "status": "final",
      "category": [ {
        "coding": [ {
          "system": "http://terminology.hl7.org/CodeSystem/observation-category",
          "code": "vital-signs",
          "display": "Vital Signs"
        } ]
      } ],
      "code": {
        "coding": [ {
          "system": "http://loinc.org",
          "code": "8302-2"
        }, {
          "system": "http://snomed.info/sct",
          "code": "50373000"
        } ],
        "text": "Body height"
      },
      "subject": {
        "reference": "Patient/7a78511c2ce57c68d66d5ec5ddf39fe2ca7a9445b2e4c719f4e189efbe89cddd"
      },
      "encounter": {
        "reference": "Encounter/d59baec720d1fb011b2384d80405ece9c51ad478ae28f6bd49b4aabc40a83f19"
      },
      "_effectiveDateTime": {
        "extension": [ {
          "url": "http://hl7.org/fhir/StructureDefinition/data-absent-reason",
          "valueCode": "unknown"
        } ]
      },
      "valueQuantity": {
        "value": 18,
        "unit": "centimeter",
        "system": "http://unitsofmeasure.org",
        "code": "cm"
      }
    },
    "request": {
      "method": "POST",
      "url": "Observation",
      "ifNoneExist": "identifier=https://mein.krankenhaus.de/fhir/NamingSystem/observationId|6f1c1e6b50acc254a6b1af5d2168980661ea3ca02a9a006aed986fdf036e11c9"
    }
  }, {
    "fullUrl": "Observation/edff29bd4658139e6d265792b857dbc772b5bbf7224909305834f3f45c0f55f2",
    "resource": {
      "resourceType": "Observation",
      "meta": {
        "profile": [ "https://www.netzwerk-universitaetsmedizin.de/fhir/StructureDefinition/known-exposure" ]
      },
      "identifier": [ {
        "type": {
          "coding": [ {
            "system": "http://terminology.hl7.org/CodeSystem/v2-0203",
            "code": "OBI",
            "display": "Observation Instance Identifier"
          } ]
        },
        "system": "https://mein.krankenhaus.de/fhir/NamingSystem/observationId",
        "value": "dcd3374a668a89cc3c7dfbeb4bb933827b9b4086ced141177731a62ae031b7c2",
        "assigner": {
          "reference": "Organization/3a4f3433bce81181bad2d8e0b8fafccf7dc800bc06f29be73dcb38b750a48f9a"
        }
      } ],
      "status": "final",
      "category": [ {
        "coding": [ {
          "system": "http://terminology.hl7.org/CodeSystem/observation-category",
          "code": "social-history",
          "display": "Social History"
        } ]
      } ],
      "code": {
        "coding": [ {
          "system": "http://loinc.org",
          "code": "88636-6"
        } ],
        "text": "Known exposure"
      },
      "subject": {
        "reference": "Patient/7a78511c2ce57c68d66d5ec5ddf39fe2ca7a9445b2e4c719f4e189efbe89cddd"
      },
      "encounter": {
        "reference": "Encounter/d59baec720d1fb011b2384d80405ece9c51ad478ae28f6bd49b4aabc40a83f19"
      },
      "_effectiveDateTime": {
        "extension": [ {
          "url": "http://hl7.org/fhir/StructureDefinition/data-absent-reason",
          "valueCode": "unknown"
        } ]
      },
      "valueCodeableConcept": {
        "coding": [ {
          "system": "http://snomed.info/sct",
          "code": "840546002"
        } ]
      }
    },
    "request": {
      "method": "POST",
      "url": "Observation",
      "ifNoneExist": "identifier=https://mein.krankenhaus.de/fhir/NamingSystem/observationId|edff29bd4658139e6d265792b857dbc772b5bbf7224909305834f3f45c0f55f2"
    }
  }, {
    "fullUrl": "Condition/3190a20dda5b94609ea2a0320d4ffed371f5498e5d2e21b69e9a030fe4421ba5",
    "resource": {
      "resourceType": "Condition",
      "meta": {
        "profile": [ "https://www.netzwerk-universitaetsmedizin.de/fhir/StructureDefinition/complications-covid-19" ]
      },
      "modifierExtension": [ {
        "url": "https://www.netzwerk-universitaetsmedizin.de/fhir/StructureDefinition/uncertainty-of-presence",
        "valueCodeableConcept": {
          "coding": [ {
            "system": "http://snomed.info/sct",
            "code": "261665006",
            "display": "Unknown (qualifier value)"
          } ],
          "text": "Presence unknown."
        }
      } ],
      "identifier": [ {
        "system": "https://mein.krankenhaus.de/fhir/NamingSystem/conditionId",
        "value": "a641a578fb7b0d77c812736564a5c910b5edcb35e0a6cee8543579353b6d1431"
      } ],
      "category": [ {
        "coding": [ {
          "system": "http://snomed.info/sct",
          "code": "116223007"
        } ]
      } ],
      "code": {
        "coding": [ {
          "system": "http://fhir.de/CodeSystem/dimdi/icd-10-gm",
          "version": "2021",
          "code": "I82.9"
        }, {
          "system": "http://snomed.info/sct",
          "code": "111293003"
        } ]
      },
      "subject": {
        "reference": "Patient/7a78511c2ce57c68d66d5ec5ddf39fe2ca7a9445b2e4c719f4e189efbe89cddd"
      },
      "encounter": {
        "reference": "Encounter/d59baec720d1fb011b2384d80405ece9c51ad478ae28f6bd49b4aabc40a83f19"
      },
      "_recordedDate": {
        "extension": [ {
          "url": "http://hl7.org/fhir/StructureDefinition/data-absent-reason",
          "valueCode": "unknown"
        } ]
      }
    },
    "request": {
      "method": "POST",
      "url": "Condition",
      "ifNoneExist": "identifier=https://mein.krankenhaus.de/fhir/NamingSystem/conditionId|3190a20dda5b94609ea2a0320d4ffed371f5498e5d2e21b69e9a030fe4421ba5"
    }
  }, {
    "fullUrl": "Condition/fa628f44a4c6840f8d8e419a9f7498d3990f8916653c21eafef5c06e46f88c4d",
    "resource": {
      "resourceType": "Condition",
      "meta": {
        "profile": [ "https://www.netzwerk-universitaetsmedizin.de/fhir/StructureDefinition/complications-covid-19" ]
      },
      "modifierExtension": [ {
        "url": "https://www.netzwerk-universitaetsmedizin.de/fhir/StructureDefinition/uncertainty-of-presence",
        "valueCodeableConcept": {
          "coding": [ {
            "system": "http://snomed.info/sct",
            "code": "261665006",
            "display": "Unknown (qualifier value)"
          } ],
          "text": "Presence unknown."
        }
      } ],
      "identifier": [ {
        "system": "https://mein.krankenhaus.de/fhir/NamingSystem/conditionId",
        "value": "536f5729a7ff15e5518e4d59224c87d5edead887f60e73f9edd81cbbb1e7b69d"
      } ],
      "category": [ {
        "coding": [ {
          "system": "http://snomed.info/sct",
          "code": "116223007"
        } ]
      } ],
      "code": {
        "coding": [ {
          "system": "http://fhir.de/CodeSystem/dimdi/icd-10-gm",
          "version": "2021",
          "code": "I26.9"
        }, {
          "system": "http://snomed.info/sct",
          "code": "59282003"
        } ]
      },
      "subject": {
        "reference": "Patient/7a78511c2ce57c68d66d5ec5ddf39fe2ca7a9445b2e4c719f4e189efbe89cddd"
      },
      "encounter": {
        "reference": "Encounter/d59baec720d1fb011b2384d80405ece9c51ad478ae28f6bd49b4aabc40a83f19"
      },
      "_recordedDate": {
        "extension": [ {
          "url": "http://hl7.org/fhir/StructureDefinition/data-absent-reason",
          "valueCode": "unknown"
        } ]
      }
    },
    "request": {
      "method": "POST",
      "url": "Condition",
      "ifNoneExist": "identifier=https://mein.krankenhaus.de/fhir/NamingSystem/conditionId|fa628f44a4c6840f8d8e419a9f7498d3990f8916653c21eafef5c06e46f88c4d"
    }
  }, {
    "fullUrl": "Condition/c91ed84b27f51e0bab65e20918ba2a30cf13410dfab8ae40269a0baf9e49ea5f",
    "resource": {
      "resourceType": "Condition",
      "meta": {
        "profile": [ "https://www.netzwerk-universitaetsmedizin.de/fhir/StructureDefinition/complications-covid-19" ]
      },
      "identifier": [ {
        "system": "https://mein.krankenhaus.de/fhir/NamingSystem/conditionId",
        "value": "c1d8613e72646d4e594829e32126c8d7d568060dde3c4cf2e0b49c205c274715"
      } ],
      "verificationStatus": {
        "coding": [ {
          "system": "http://terminology.hl7.org/CodeSystem/condition-ver-status",
          "code": "refuted",
          "display": "Refuted"
        }, {
          "system": "http://snomed.info/sct",
          "code": "410594000",
          "display": "Definitely NOT present (qualifier value)"
        } ]
      },
      "category": [ {
        "coding": [ {
          "system": "http://snomed.info/sct",
          "code": "116223007"
        } ]
      } ],
      "code": {
        "coding": [ {
          "system": "http://fhir.de/CodeSystem/dimdi/icd-10-gm",
          "version": "2021",
          "code": "I64"
        }, {
          "system": "http://snomed.info/sct",
          "code": "230690007"
        } ]
      },
      "subject": {
        "reference": "Patient/7a78511c2ce57c68d66d5ec5ddf39fe2ca7a9445b2e4c719f4e189efbe89cddd"
      },
      "encounter": {
        "reference": "Encounter/d59baec720d1fb011b2384d80405ece9c51ad478ae28f6bd49b4aabc40a83f19"
      },
      "_recordedDate": {
        "extension": [ {
          "url": "http://hl7.org/fhir/StructureDefinition/data-absent-reason",
          "valueCode": "unknown"
        } ]
      }
    },
    "request": {
      "method": "POST",
      "url": "Condition",
      "ifNoneExist": "identifier=https://mein.krankenhaus.de/fhir/NamingSystem/conditionId|c91ed84b27f51e0bab65e20918ba2a30cf13410dfab8ae40269a0baf9e49ea5f"
    }
  }, {
    "fullUrl": "Condition/db02e982304864cd8c4c5f7a0cab32d510a20cdff3b4048f962d3800a9f477eb",
    "resource": {
      "resourceType": "Condition",
      "meta": {
        "profile": [ "https://www.netzwerk-universitaetsmedizin.de/fhir/StructureDefinition/complications-covid-19" ]
      },
      "identifier": [ {
        "system": "https://mein.krankenhaus.de/fhir/NamingSystem/conditionId",
        "value": "66d88703cce529e0bf2996c7cd0493f6507b2e50abdef7862dc33bf270625df9"
      } ],
      "verificationStatus": {
        "coding": [ {
          "system": "http://terminology.hl7.org/CodeSystem/condition-ver-status",
          "code": "refuted",
          "display": "Refuted"
        }, {
          "system": "http://snomed.info/sct",
          "code": "410594000",
          "display": "Definitely NOT present (qualifier value)"
        } ]
      },
      "category": [ {
        "coding": [ {
          "system": "http://snomed.info/sct",
          "code": "116223007"
        } ]
      } ],
      "code": {
        "coding": [ {
          "system": "http://fhir.de/CodeSystem/dimdi/icd-10-gm",
          "version": "2021",
          "code": "I21.9"
        }, {
          "system": "http://snomed.info/sct",
          "code": "22298006"
        } ]
      },
      "subject": {
        "reference": "Patient/7a78511c2ce57c68d66d5ec5ddf39fe2ca7a9445b2e4c719f4e189efbe89cddd"
      },
      "encounter": {
        "reference": "Encounter/d59baec720d1fb011b2384d80405ece9c51ad478ae28f6bd49b4aabc40a83f19"
      },
      "_recordedDate": {
        "extension": [ {
          "url": "http://hl7.org/fhir/StructureDefinition/data-absent-reason",
          "valueCode": "unknown"
        } ]
      }
    },
    "request": {
      "method": "POST",
      "url": "Condition",
      "ifNoneExist": "identifier=https://mein.krankenhaus.de/fhir/NamingSystem/conditionId|db02e982304864cd8c4c5f7a0cab32d510a20cdff3b4048f962d3800a9f477eb"
    }
  }, {
    "fullUrl": "Condition/0b4b50a98aa020ab543c66db7d216467f65c4ea42ff3042f358c351726e1a581",
    "resource": {
      "resourceType": "Condition",
      "meta": {
        "profile": [ "https://www.netzwerk-universitaetsmedizin.de/fhir/StructureDefinition/complications-covid-19" ]
      },
      "modifierExtension": [ {
        "url": "https://www.netzwerk-universitaetsmedizin.de/fhir/StructureDefinition/uncertainty-of-presence",
        "valueCodeableConcept": {
          "coding": [ {
            "system": "http://snomed.info/sct",
            "code": "261665006",
            "display": "Unknown (qualifier value)"
          } ],
          "text": "Presence unknown."
        }
      } ],
      "identifier": [ {
        "system": "https://mein.krankenhaus.de/fhir/NamingSystem/conditionId",
        "value": "01ac879311c0275d48c3030a21fa4e07c41823f7407a1174e1e0dd74227deb2f"
      } ],
      "category": [ {
        "coding": [ {
          "system": "http://snomed.info/sct",
          "code": "116223007"
        } ]
      } ],
      "code": {
        "coding": [ {
          "system": "http://fhir.de/CodeSystem/dimdi/icd-10-gm",
          "version": "2021",
          "code": "I82.9"
        }, {
          "system": "http://snomed.info/sct",
          "code": "371039008"
        } ]
      },
      "subject": {
        "reference": "Patient/7a78511c2ce57c68d66d5ec5ddf39fe2ca7a9445b2e4c719f4e189efbe89cddd"
      },
      "encounter": {
        "reference": "Encounter/d59baec720d1fb011b2384d80405ece9c51ad478ae28f6bd49b4aabc40a83f19"
      },
      "_recordedDate": {
        "extension": [ {
          "url": "http://hl7.org/fhir/StructureDefinition/data-absent-reason",
          "valueCode": "unknown"
        } ]
      }
    },
    "request": {
      "method": "POST",
      "url": "Condition",
      "ifNoneExist": "identifier=https://mein.krankenhaus.de/fhir/NamingSystem/conditionId|0b4b50a98aa020ab543c66db7d216467f65c4ea42ff3042f358c351726e1a581"
    }
  }, {
    "fullUrl": "Condition/73f13f9c91697fc0279fddf1553a44d32f55b378c5ead843b61686fd6f4ca150",
    "resource": {
      "resourceType": "Condition",
      "meta": {
        "profile": [ "https://www.netzwerk-universitaetsmedizin.de/fhir/StructureDefinition/complications-covid-19" ]
      },
      "modifierExtension": [ {
        "url": "https://www.netzwerk-universitaetsmedizin.de/fhir/StructureDefinition/uncertainty-of-presence",
        "valueCodeableConcept": {
          "coding": [ {
            "system": "http://snomed.info/sct",
            "code": "261665006",
            "display": "Unknown (qualifier value)"
          } ],
          "text": "Presence unknown."
        }
      } ],
      "identifier": [ {
        "system": "https://mein.krankenhaus.de/fhir/NamingSystem/conditionId",
        "value": "f12a3ea25ea3191f75d3bfb0ad7828126b3bbe869cd583c18b491bec75a26049"
      } ],
      "category": [ {
        "coding": [ {
          "system": "http://snomed.info/sct",
          "code": "116223007"
        } ]
      } ],
      "code": {
        "coding": [ {
          "system": "http://fhir.de/CodeSystem/dimdi/icd-10-gm",
          "version": "2021",
          "code": "J18.9"
        }, {
          "system": "http://snomed.info/sct",
          "code": "128601007"
        } ]
      },
      "subject": {
        "reference": "Patient/7a78511c2ce57c68d66d5ec5ddf39fe2ca7a9445b2e4c719f4e189efbe89cddd"
      },
      "encounter": {
        "reference": "Encounter/d59baec720d1fb011b2384d80405ece9c51ad478ae28f6bd49b4aabc40a83f19"
      },
      "_recordedDate": {
        "extension": [ {
          "url": "http://hl7.org/fhir/StructureDefinition/data-absent-reason",
          "valueCode": "unknown"
        } ]
      }
    },
    "request": {
      "method": "POST",
      "url": "Condition",
      "ifNoneExist": "identifier=https://mein.krankenhaus.de/fhir/NamingSystem/conditionId|73f13f9c91697fc0279fddf1553a44d32f55b378c5ead843b61686fd6f4ca150"
    }
  }, {
    "fullUrl": "Condition/4c28e8102feac609b067a7f4b8ff977f50a48d7d79bff473baec67de341be522",
    "resource": {
      "resourceType": "Condition",
      "meta": {
        "profile": [ "https://www.netzwerk-universitaetsmedizin.de/fhir/StructureDefinition/complications-covid-19" ]
      },
      "modifierExtension": [ {
        "url": "https://www.netzwerk-universitaetsmedizin.de/fhir/StructureDefinition/uncertainty-of-presence",
        "valueCodeableConcept": {
          "coding": [ {
            "system": "http://snomed.info/sct",
            "code": "261665006",
            "display": "Unknown (qualifier value)"
          } ],
          "text": "Presence unknown."
        }
      } ],
      "identifier": [ {
        "system": "https://mein.krankenhaus.de/fhir/NamingSystem/conditionId",
        "value": "6d32587c2bb3a6ebe071c12d99cb3267bac109dfa2773a8f6814004f902fafaa"
      } ],
      "category": [ {
        "coding": [ {
          "system": "http://snomed.info/sct",
          "code": "116223007"
        } ]
      } ],
      "code": {
        "coding": [ {
          "system": "http://fhir.de/CodeSystem/dimdi/icd-10-gm",
          "version": "2021",
          "code": "A41.9"
        }, {
          "system": "http://snomed.info/sct",
          "code": "434156008"
        } ]
      },
      "subject": {
        "reference": "Patient/7a78511c2ce57c68d66d5ec5ddf39fe2ca7a9445b2e4c719f4e189efbe89cddd"
      },
      "encounter": {
        "reference": "Encounter/d59baec720d1fb011b2384d80405ece9c51ad478ae28f6bd49b4aabc40a83f19"
      },
      "_recordedDate": {
        "extension": [ {
          "url": "http://hl7.org/fhir/StructureDefinition/data-absent-reason",
          "valueCode": "unknown"
        } ]
      }
    },
    "request": {
      "method": "POST",
      "url": "Condition",
      "ifNoneExist": "identifier=https://mein.krankenhaus.de/fhir/NamingSystem/conditionId|4c28e8102feac609b067a7f4b8ff977f50a48d7d79bff473baec67de341be522"
    }
  }, {
    "fullUrl": "Procedure/b34cf777b56c46d1e286ae3382d19a598b0d741fb757b9ad4ba0f4087256db2b",
    "resource": {
      "resourceType": "Procedure",
      "meta": {
        "profile": [ "https://www.netzwerk-universitaetsmedizin.de/fhir/StructureDefinition/dialysis" ]
      },
      "identifier": [ {
        "system": "https://mein.krankenhaus.de/fhir/NamingSystem/procedureId",
        "value": "da05c2962b1200e0d4e3abb65390684b9a06d87eae887d3b5b94d608682c0503"
      } ],
      "status": "not-done",
      "category": {
        "coding": [ {
          "system": "http://snomed.info/sct",
          "code": "277132007",
          "display": "Therapeutic procedure (procedure)"
        } ]
      },
      "code": {
        "coding": [ {
          "system": "http://snomed.info/sct",
          "code": "108241001"
        } ],
        "text": "Dialysis"
      },
      "subject": {
        "reference": "Patient/7a78511c2ce57c68d66d5ec5ddf39fe2ca7a9445b2e4c719f4e189efbe89cddd"
      },
      "encounter": {
        "reference": "Encounter/d59baec720d1fb011b2384d80405ece9c51ad478ae28f6bd49b4aabc40a83f19"
      },
      "_performedDateTime": {
        "extension": [ {
          "url": "http://hl7.org/fhir/StructureDefinition/data-absent-reason",
          "valueCode": "not-performed"
        } ]
      }
    },
    "request": {
      "method": "POST",
      "url": "Procedure",
      "ifNoneExist": "identifier=https://mein.krankenhaus.de/fhir/NamingSystem/procedureId|b34cf777b56c46d1e286ae3382d19a598b0d741fb757b9ad4ba0f4087256db2b"
    }
  }, {
    "fullUrl": "Procedure/ba4071a32e484ef030e5396f2facf37f2d08c9db0bb9cd0715e6fe18bd15829b",
    "resource": {
      "resourceType": "Procedure",
      "meta": {
        "profile": [ "https://www.netzwerk-universitaetsmedizin.de/fhir/StructureDefinition/apheresis" ]
      },
      "identifier": [ {
        "system": "https://mein.krankenhaus.de/fhir/NamingSystem/procedureId",
        "value": "3209e3a27c582932f921d991baf1b36aaa11837e7097829d103fb1f764db70ea"
      } ],
      "status": "unknown",
      "category": {
        "coding": [ {
          "system": "http://snomed.info/sct",
          "code": "277132007",
          "display": "Therapeutic procedure (procedure)"
        } ]
      },
      "code": {
        "coding": [ {
          "system": "http://snomed.info/sct",
          "code": "127788007"
        } ],
        "text": "Apheresis"
      },
      "subject": {
        "reference": "Patient/7a78511c2ce57c68d66d5ec5ddf39fe2ca7a9445b2e4c719f4e189efbe89cddd"
      },
      "encounter": {
        "reference": "Encounter/d59baec720d1fb011b2384d80405ece9c51ad478ae28f6bd49b4aabc40a83f19"
      },
      "_performedDateTime": {
        "extension": [ {
          "url": "http://hl7.org/fhir/StructureDefinition/data-absent-reason",
          "valueCode": "unknown"
        } ]
      }
    },
    "request": {
      "method": "POST",
      "url": "Procedure",
      "ifNoneExist": "identifier=https://mein.krankenhaus.de/fhir/NamingSystem/procedureId|ba4071a32e484ef030e5396f2facf37f2d08c9db0bb9cd0715e6fe18bd15829b"
    }
  }, {
    "fullUrl": "Procedure/bdfadfc98622f10231e158dc730d9d4dce180664b0348022575c020623fc177b",
    "resource": {
      "resourceType": "Procedure",
      "meta": {
        "profile": [ "https://www.netzwerk-universitaetsmedizin.de/fhir/StructureDefinition/prone-position" ]
      },
      "identifier": [ {
        "system": "https://mein.krankenhaus.de/fhir/NamingSystem/procedureId",
        "value": "03d8a3b20c342e16a4176ec56d201847f2740576a54a5bff8eee0c05fae79319"
      } ],
      "status": "in-progress",
      "category": {
        "coding": [ {
          "system": "http://snomed.info/sct",
          "code": "225287004",
          "display": "Procedures relating to positioning and support (procedure)"
        } ]
      },
      "code": {
        "coding": [ {
          "system": "http://snomed.info/sct",
          "code": "431182000"
        } ],
        "text": "Prone position"
      },
      "subject": {
        "reference": "Patient/7a78511c2ce57c68d66d5ec5ddf39fe2ca7a9445b2e4c719f4e189efbe89cddd"
      },
      "encounter": {
        "reference": "Encounter/d59baec720d1fb011b2384d80405ece9c51ad478ae28f6bd49b4aabc40a83f19"
      },
      "_performedDateTime": {
        "extension": [ {
          "url": "http://hl7.org/fhir/StructureDefinition/data-absent-reason",
          "valueCode": "unknown"
        } ]
      }
    },
    "request": {
      "method": "POST",
      "url": "Procedure",
      "ifNoneExist": "identifier=https://mein.krankenhaus.de/fhir/NamingSystem/procedureId|bdfadfc98622f10231e158dc730d9d4dce180664b0348022575c020623fc177b"
    }
  }, {
    "fullUrl": "Procedure/cc0a3a220f40e50d632929d6c1e3c62c4b60cee73d95df31c0d75b45a4e19a47",
    "resource": {
      "resourceType": "Procedure",
      "meta": {
        "profile": [ "https://www.netzwerk-universitaetsmedizin.de/fhir/StructureDefinition/respiratory-therapies" ]
      },
      "identifier": [ {
        "system": "https://mein.krankenhaus.de/fhir/NamingSystem/procedureId",
        "value": "758eb73bd333d8949db6abed6bdf4da25a491cd1630b00f54b08576483019c18"
      } ],
      "status": "in-progress",
      "category": {
        "coding": [ {
          "system": "http://snomed.info/sct",
          "code": "277132007",
          "display": "Therapeutic procedure (procedure)"
        } ]
      },
      "code": {
        "coding": [ {
          "system": "http://snomed.info/sct",
          "code": "40617009:425391005=26412008"
        } ]
      },
      "subject": {
        "reference": "Patient/7a78511c2ce57c68d66d5ec5ddf39fe2ca7a9445b2e4c719f4e189efbe89cddd"
      },
      "encounter": {
        "reference": "Encounter/d59baec720d1fb011b2384d80405ece9c51ad478ae28f6bd49b4aabc40a83f19"
      },
      "_performedDateTime": {
        "extension": [ {
          "url": "http://hl7.org/fhir/StructureDefinition/data-absent-reason",
          "valueCode": "unknown"
        } ]
      },
      "usedCode": [ {
        "coding": [ {
          "system": "http://snomed.info/sct",
          "code": "26412008"
        } ]
      } ]
    },
    "request": {
      "method": "POST",
      "url": "Procedure",
      "ifNoneExist": "identifier=https://mein.krankenhaus.de/fhir/NamingSystem/procedureId|cc0a3a220f40e50d632929d6c1e3c62c4b60cee73d95df31c0d75b45a4e19a47"
    }
  }, {
    "fullUrl": "Observation/742a08a39a480ca77ce335e7c29c4c003724fe4a13f5a2c5e503d1ce66d2a6f8",
    "resource": {
      "resourceType": "Observation",
      "meta": {
        "profile": [ "https://www.netzwerk-universitaetsmedizin.de/fhir/StructureDefinition/patient-in-icu" ]
      },
      "identifier": [ {
        "system": "https://mein.krankenhaus.de/fhir/NamingSystem/observationId",
        "value": "49ac9a023c2907ea7e305a3509eaf7e7a93ad9247fea3e171e1d797aa81a85c8"
      } ],
      "status": "final",
      "category": [ {
        "coding": [ {
          "system": "http://terminology.hl7.org/CodeSystem/observation-category",
          "code": "survey",
          "display": "Survey"
        } ]
      } ],
      "code": {
        "coding": [ {
          "system": "https://www.netzwerk-universitaetsmedizin.de/fhir/CodeSystem/ecrf-parameter-codes",
          "code": "01",
          "display": "Is the patient in the intensive care unit?"
        } ]
      },
      "subject": {
        "reference": "Patient/7a78511c2ce57c68d66d5ec5ddf39fe2ca7a9445b2e4c719f4e189efbe89cddd"
      },
      "encounter": {
        "reference": "Encounter/d59baec720d1fb011b2384d80405ece9c51ad478ae28f6bd49b4aabc40a83f19"
      },
      "_effectiveDateTime": {
        "extension": [ {
          "url": "http://hl7.org/fhir/StructureDefinition/data-absent-reason",
          "valueCode": "unknown"
        } ]
      },
      "valueCodeableConcept": {
        "coding": [ {
          "system": "http://snomed.info/sct",
          "code": "261665006"
        } ]
      }
    },
    "request": {
      "method": "POST",
      "url": "Observation",
      "ifNoneExist": "identifier=https://mein.krankenhaus.de/fhir/NamingSystem/observationId|742a08a39a480ca77ce335e7c29c4c003724fe4a13f5a2c5e503d1ce66d2a6f8"
    }
  }, {
    "fullUrl": "Condition/01fdfb69cee04913c9ec3f48e95e12393110d7fa74ca86f146702bedd3803973",
    "resource": {
      "resourceType": "Condition",
      "meta": {
        "profile": [ "https://www.netzwerk-universitaetsmedizin.de/fhir/StructureDefinition/dependence-on-ventilator" ]
      },
      "identifier": [ {
        "system": "https://mein.krankenhaus.de/fhir/NamingSystem/conditionId",
        "value": "048548e4210df44464caff9c03ae0438e5b7e9fa4e42184fbab8f5c3b855edda"
      } ],
      "clinicalStatus": {
        "coding": [ {
          "system": "http://terminology.hl7.org/CodeSystem/condition-clinical",
          "code": "active",
          "display": "Active"
        } ]
      },
      "verificationStatus": {
        "coding": [ {
          "system": "http://terminology.hl7.org/CodeSystem/condition-ver-status",
          "code": "confirmed",
          "display": "Confirmed"
        }, {
          "system": "http://snomed.info/sct",
          "code": "410605003",
          "display": "Confirmed present (qualifier value)"
        } ]
      },
      "category": [ {
        "coding": [ {
          "system": "http://snomed.info/sct",
          "code": "404989005",
          "display": "Ventilation status (observable entity)"
        } ]
      } ],
      "code": {
        "coding": [ {
          "system": "http://snomed.info/sct",
          "code": "444932008"
        } ]
      },
      "subject": {
        "reference": "Patient/7a78511c2ce57c68d66d5ec5ddf39fe2ca7a9445b2e4c719f4e189efbe89cddd"
      },
      "encounter": {
        "reference": "Encounter/d59baec720d1fb011b2384d80405ece9c51ad478ae28f6bd49b4aabc40a83f19"
      },
      "_recordedDate": {
        "extension": [ {
          "url": "http://hl7.org/fhir/StructureDefinition/data-absent-reason",
          "valueCode": "unknown"
        } ]
      }
    },
    "request": {
      "method": "POST",
      "url": "Condition",
      "ifNoneExist": "identifier=https://mein.krankenhaus.de/fhir/NamingSystem/conditionId|01fdfb69cee04913c9ec3f48e95e12393110d7fa74ca86f146702bedd3803973"
    }
  }, {
    "fullUrl": "Observation/9c96e9554e6f557b67642bad1bf9726774713498765559122d243f8d2207f470",
    "resource": {
      "resourceType": "Observation",
      "meta": {
        "profile": [ "https://www.netzwerk-universitaetsmedizin.de/fhir/StructureDefinition/sars-cov-2-rt-pcr" ]
      },
      "identifier": [ {
        "type": {
          "coding": [ {
            "system": "http://terminology.hl7.org/CodeSystem/v2-0203",
            "code": "OBI",
            "display": "Observation Instance Identifier"
          } ]
        },
        "system": "https://mein.krankenhaus.de/fhir/NamingSystem/observationId",
        "value": "dcf8526500a3cf5c170d15fc107f658c7b5bf0fbf3029839edd1c4591fee8d30",
        "assigner": {
          "reference": "Organization/3a4f3433bce81181bad2d8e0b8fafccf7dc800bc06f29be73dcb38b750a48f9a"
        }
      } ],
      "status": "final",
      "category": [ {
        "coding": [ {
          "system": "http://terminology.hl7.org/CodeSystem/observation-category",
          "code": "laboratory",
          "display": "Laboratory"
        }, {
          "system": "http://loinc.org",
          "code": "26436-6",
          "display": "Laboratory studies (set)"
        } ]
      } ],
      "code": {
        "coding": [ {
          "system": "http://loinc.org",
          "code": "94500-6"
        } ]
      },
      "subject": {
        "reference": "Patient/7a78511c2ce57c68d66d5ec5ddf39fe2ca7a9445b2e4c719f4e189efbe89cddd"
      },
      "encounter": {
        "reference": "Encounter/d59baec720d1fb011b2384d80405ece9c51ad478ae28f6bd49b4aabc40a83f19"
      },
      "_effectiveDateTime": {
        "extension": [ {
          "url": "http://hl7.org/fhir/StructureDefinition/data-absent-reason",
          "valueCode": "unknown"
        } ]
      },
      "valueCodeableConcept": {
        "coding": [ {
          "system": "http://snomed.info/sct",
          "code": "260415000"
        } ]
      }
    },
    "request": {
      "method": "POST",
      "url": "Observation",
      "ifNoneExist": "identifier=https://mein.krankenhaus.de/fhir/NamingSystem/observationId|9c96e9554e6f557b67642bad1bf9726774713498765559122d243f8d2207f470"
    }
  }, {
    "fullUrl": "MedicationStatement/cba4a97ac1271300cee335e47b630820a04daec950d53971dea2e3f86c4765df",
    "resource": {
      "resourceType": "MedicationStatement",
      "meta": {
        "profile": [ "https://www.netzwerk-universitaetsmedizin.de/fhir/StructureDefinition/pharmacological-therapy" ]
      },
      "identifier": [ {
        "system": "https://mein.krankenhaus.de/fhir/NamingSystem/medicationstatementId",
        "value": "2f87de63f6d4157c866a7053193eee73796f7051a7a53d59c4d0cd06b8421a6a"
      } ],
      "status": "not-taken",
      "medicationCodeableConcept": {
        "coding": [ {
          "system": "http://fhir.de/CodeSystem/dimdi/atc",
          "code": "N02B"
        }, {
          "system": "https://www.netzwerk-universitaetsmedizin.de/fhir/CodeSystem/ecrf-parameter-codes",
          "code": "antipyretic"
        } ]
      },
      "subject": {
        "reference": "Patient/7a78511c2ce57c68d66d5ec5ddf39fe2ca7a9445b2e4c719f4e189efbe89cddd"
      },
      "effectiveDateTime": "2020-05-30T17:13:00+00:00"
    },
    "request": {
      "method": "POST",
      "url": "MedicationStatement",
      "ifNoneExist": "identifier=https://mein.krankenhaus.de/fhir/NamingSystem/medicationstatementId|cba4a97ac1271300cee335e47b630820a04daec950d53971dea2e3f86c4765df"
    }
  }, {
    "fullUrl": "MedicationStatement/f1b144c8ba7c4be0b9d3473531d705264c3786415c73ff2ef97524852e202332",
    "resource": {
      "resourceType": "MedicationStatement",
      "meta": {
        "profile": [ "https://www.netzwerk-universitaetsmedizin.de/fhir/StructureDefinition/pharmacological-therapy" ]
      },
      "identifier": [ {
        "system": "https://mein.krankenhaus.de/fhir/NamingSystem/medicationstatementId",
        "value": "a9e53848b8c2e757d51a5f8459db8ef77c0909d97e5e987147d0076e0194a78b"
      } ],
      "status": "active",
      "medicationCodeableConcept": {
        "coding": [ {
          "system": "http://snomed.info/sct",
          "code": "768759001"
        } ]
      },
      "subject": {
        "reference": "Patient/7a78511c2ce57c68d66d5ec5ddf39fe2ca7a9445b2e4c719f4e189efbe89cddd"
      },
      "effectiveDateTime": "2020-05-30T17:13:00+00:00"
    },
    "request": {
      "method": "POST",
      "url": "MedicationStatement",
      "ifNoneExist": "identifier=https://mein.krankenhaus.de/fhir/NamingSystem/medicationstatementId|f1b144c8ba7c4be0b9d3473531d705264c3786415c73ff2ef97524852e202332"
    }
  }, {
    "fullUrl": "MedicationStatement/7e230e24f6f0f3f462df33dfdeb67fc599f5160054bd6f0d9111a2783ea49830",
    "resource": {
      "resourceType": "MedicationStatement",
      "meta": {
        "profile": [ "https://www.netzwerk-universitaetsmedizin.de/fhir/StructureDefinition/pharmacological-therapy" ]
      },
      "identifier": [ {
        "system": "https://mein.krankenhaus.de/fhir/NamingSystem/medicationstatementId",
        "value": "49ea48ca171883eeb3933f66e31199137123034a92ead8473ef1479c1b3d7e05"
      } ],
      "status": "unknown",
      "medicationCodeableConcept": {
        "coding": [ {
          "system": "http://fhir.de/CodeSystem/dimdi/atc",
          "code": "J05AE08"
        }, {
          "system": "http://fhir.de/CodeSystem/dimdi/atc",
          "code": "J05AR15"
        }, {
          "system": "http://fhir.de/CodeSystem/dimdi/atc",
          "code": "J05AR23"
        }, {
          "system": "http://snomed.info/sct",
          "code": "413591007"
        } ]
      },
      "subject": {
        "reference": "Patient/7a78511c2ce57c68d66d5ec5ddf39fe2ca7a9445b2e4c719f4e189efbe89cddd"
      },
      "effectiveDateTime": "2020-05-30T17:13:00+00:00"
    },
    "request": {
      "method": "POST",
      "url": "MedicationStatement",
      "ifNoneExist": "identifier=https://mein.krankenhaus.de/fhir/NamingSystem/medicationstatementId|7e230e24f6f0f3f462df33dfdeb67fc599f5160054bd6f0d9111a2783ea49830"
    }
  }, {
    "fullUrl": "MedicationStatement/a665199d76985fb3be1f03f15d993260d1d53bb3dcf336e81ff63298d2690ad8",
    "resource": {
      "resourceType": "MedicationStatement",
      "meta": {
        "profile": [ "https://www.netzwerk-universitaetsmedizin.de/fhir/StructureDefinition/pharmacological-therapy" ]
      },
      "identifier": [ {
        "system": "https://mein.krankenhaus.de/fhir/NamingSystem/medicationstatementId",
        "value": "913b4be9951d4fea19c423888beb4afdf6c236e2cbfcb89f00827637ae05f99b"
      } ],
      "status": "active",
      "medicationCodeableConcept": {
        "coding": [ {
          "system": "http://fhir.de/CodeSystem/dimdi/atc",
          "code": "J05AR14"
        } ]
      },
      "subject": {
        "reference": "Patient/7a78511c2ce57c68d66d5ec5ddf39fe2ca7a9445b2e4c719f4e189efbe89cddd"
      },
      "effectiveDateTime": "2020-05-30T17:13:00+00:00"
    },
    "request": {
      "method": "POST",
      "url": "MedicationStatement",
      "ifNoneExist": "identifier=https://mein.krankenhaus.de/fhir/NamingSystem/medicationstatementId|a665199d76985fb3be1f03f15d993260d1d53bb3dcf336e81ff63298d2690ad8"
    }
  }, {
    "fullUrl": "MedicationStatement/c017639f9325e19fd1aa12a3244db7f58d470246b09cc1e852acfcd79e4f9086",
    "resource": {
      "resourceType": "MedicationStatement",
      "meta": {
        "profile": [ "https://www.netzwerk-universitaetsmedizin.de/fhir/StructureDefinition/pharmacological-therapy" ]
      },
      "identifier": [ {
        "system": "https://mein.krankenhaus.de/fhir/NamingSystem/medicationstatementId",
        "value": "f202165aaabe943a3019827ea42078c9bfc55f702c7e2c2040c38a9a65e2d663"
      } ],
      "status": "not-taken",
      "medicationCodeableConcept": {
        "coding": [ {
          "system": "http://fhir.de/CodeSystem/dimdi/atc",
          "code": "P01BA01"
        }, {
          "system": "http://snomed.info/sct",
          "code": "14728000"
        } ]
      },
      "subject": {
        "reference": "Patient/7a78511c2ce57c68d66d5ec5ddf39fe2ca7a9445b2e4c719f4e189efbe89cddd"
      },
      "effectiveDateTime": "2020-05-30T17:13:00+00:00"
    },
    "request": {
      "method": "POST",
      "url": "MedicationStatement",
      "ifNoneExist": "identifier=https://mein.krankenhaus.de/fhir/NamingSystem/medicationstatementId|c017639f9325e19fd1aa12a3244db7f58d470246b09cc1e852acfcd79e4f9086"
    }
  }, {
    "fullUrl": "MedicationStatement/2d0085bb5863550dbbea0c3ca48868081c3544ba218b276ab6f099478619d763",
    "resource": {
      "resourceType": "MedicationStatement",
      "meta": {
        "profile": [ "https://www.netzwerk-universitaetsmedizin.de/fhir/StructureDefinition/pharmacological-therapy" ]
      },
      "identifier": [ {
        "system": "https://mein.krankenhaus.de/fhir/NamingSystem/medicationstatementId",
        "value": "21ff60b5a66edadce1d682a114d703ff2f8c9ee438b6a60bdc63006b902b9a76"
      } ],
      "status": "unknown",
      "medicationCodeableConcept": {
        "coding": [ {
          "system": "http://fhir.de/CodeSystem/dimdi/atc",
          "code": "P01BA02"
        }, {
          "system": "http://snomed.info/sct",
          "code": "83490000"
        } ]
      },
      "subject": {
        "reference": "Patient/7a78511c2ce57c68d66d5ec5ddf39fe2ca7a9445b2e4c719f4e189efbe89cddd"
      },
      "effectiveDateTime": "2020-05-30T17:13:00+00:00"
    },
    "request": {
      "method": "POST",
      "url": "MedicationStatement",
      "ifNoneExist": "identifier=https://mein.krankenhaus.de/fhir/NamingSystem/medicationstatementId|2d0085bb5863550dbbea0c3ca48868081c3544ba218b276ab6f099478619d763"
    }
  }, {
    "fullUrl": "MedicationStatement/d3636f1d046650c7214891a31bd487a0bb9975a5f9be2f0704d3c9300cc1768a",
    "resource": {
      "resourceType": "MedicationStatement",
      "meta": {
        "profile": [ "https://www.netzwerk-universitaetsmedizin.de/fhir/StructureDefinition/pharmacological-therapy" ]
      },
      "identifier": [ {
        "system": "https://mein.krankenhaus.de/fhir/NamingSystem/medicationstatementId",
        "value": "d1b2028c728bc1c9f351d8f4edc756a7ac81626d38278764fbcb4abef4b5c5a1"
      } ],
      "status": "not-taken",
      "medicationCodeableConcept": {
        "coding": [ {
          "system": "http://fhir.de/CodeSystem/dimdi/atc",
          "code": "D11AX22"
        }, {
          "system": "http://fhir.de/CodeSystem/dimdi/atc",
          "code": "P02CF01"
        }, {
          "system": "http://snomed.info/sct",
          "code": "96138006"
        } ]
      },
      "subject": {
        "reference": "Patient/7a78511c2ce57c68d66d5ec5ddf39fe2ca7a9445b2e4c719f4e189efbe89cddd"
      },
      "effectiveDateTime": "2020-05-30T17:13:00+00:00"
    },
    "request": {
      "method": "POST",
      "url": "MedicationStatement",
      "ifNoneExist": "identifier=https://mein.krankenhaus.de/fhir/NamingSystem/medicationstatementId|d3636f1d046650c7214891a31bd487a0bb9975a5f9be2f0704d3c9300cc1768a"
    }
  }, {
    "fullUrl": "MedicationStatement/e7b9f0c3d784aa6c7ad1f69c243ddce6d44892bd4d98eaaeb5540569d561d2bf",
    "resource": {
      "resourceType": "MedicationStatement",
      "meta": {
        "profile": [ "https://www.netzwerk-universitaetsmedizin.de/fhir/StructureDefinition/pharmacological-therapy" ]
      },
      "identifier": [ {
        "system": "https://mein.krankenhaus.de/fhir/NamingSystem/medicationstatementId",
        "value": "7803e4c39498c5344c35325bb992379f42e03798677dfb53f7fdb092663999e0"
      } ],
      "status": "not-taken",
      "medicationCodeableConcept": {
        "coding": [ {
          "system": "http://fhir.de/CodeSystem/dimdi/atc",
          "code": "J05AR10"
        }, {
          "system": "http://snomed.info/sct",
          "code": "134573001"
        } ]
      },
      "subject": {
        "reference": "Patient/7a78511c2ce57c68d66d5ec5ddf39fe2ca7a9445b2e4c719f4e189efbe89cddd"
      },
      "effectiveDateTime": "2020-05-30T17:13:00+00:00"
    },
    "request": {
      "method": "POST",
      "url": "MedicationStatement",
      "ifNoneExist": "identifier=https://mein.krankenhaus.de/fhir/NamingSystem/medicationstatementId|e7b9f0c3d784aa6c7ad1f69c243ddce6d44892bd4d98eaaeb5540569d561d2bf"
    }
  }, {
    "fullUrl": "MedicationStatement/b2095fc6dc5c6c5b559ae2c3c17eb58d54606f03c8c3347673edcef4cc6a6a8e",
    "resource": {
      "resourceType": "MedicationStatement",
      "meta": {
        "profile": [ "https://www.netzwerk-universitaetsmedizin.de/fhir/StructureDefinition/pharmacological-therapy" ]
      },
      "identifier": [ {
        "system": "https://mein.krankenhaus.de/fhir/NamingSystem/medicationstatementId",
        "value": "bfbda667622d4c4b9658ce8badb9379386eac6259b8cf58fba252e10a891b7ac"
      } ],
      "status": "not-taken",
      "medicationCodeableConcept": {
        "coding": [ {
          "system": "http://fhir.de/CodeSystem/dimdi/atc",
          "code": "J05AB06"
        }, {
          "system": "http://fhir.de/CodeSystem/dimdi/atc",
          "code": "S01AD09"
        }, {
          "system": "http://snomed.info/sct",
          "code": "78025001"
        } ]
      },
      "subject": {
        "reference": "Patient/7a78511c2ce57c68d66d5ec5ddf39fe2ca7a9445b2e4c719f4e189efbe89cddd"
      },
      "effectiveDateTime": "2020-05-30T17:13:00+00:00"
    },
    "request": {
      "method": "POST",
      "url": "MedicationStatement",
      "ifNoneExist": "identifier=https://mein.krankenhaus.de/fhir/NamingSystem/medicationstatementId|b2095fc6dc5c6c5b559ae2c3c17eb58d54606f03c8c3347673edcef4cc6a6a8e"
    }
  }, {
    "fullUrl": "MedicationStatement/ac20731b5b45113cc872e81ec60471ff2b90f68837e4816d0fce3299f3ee737e",
    "resource": {
      "resourceType": "MedicationStatement",
      "meta": {
        "profile": [ "https://www.netzwerk-universitaetsmedizin.de/fhir/StructureDefinition/pharmacological-therapy" ]
      },
      "identifier": [ {
        "system": "https://mein.krankenhaus.de/fhir/NamingSystem/medicationstatementId",
        "value": "aa55534747e5a25fa125eb33f4e7e4498c397e6ce9ce9757e1aa797a8bc17e63"
      } ],
      "status": "active",
      "medicationCodeableConcept": {
        "coding": [ {
          "system": "http://fhir.de/CodeSystem/dimdi/atc",
          "code": "J05AH02"
        }, {
          "system": "http://snomed.info/sct",
          "code": "386142008"
        } ]
      },
      "subject": {
        "reference": "Patient/7a78511c2ce57c68d66d5ec5ddf39fe2ca7a9445b2e4c719f4e189efbe89cddd"
      },
      "effectiveDateTime": "2020-05-30T17:13:00+00:00"
    },
    "request": {
      "method": "POST",
      "url": "MedicationStatement",
      "ifNoneExist": "identifier=https://mein.krankenhaus.de/fhir/NamingSystem/medicationstatementId|ac20731b5b45113cc872e81ec60471ff2b90f68837e4816d0fce3299f3ee737e"
    }
  }, {
    "fullUrl": "MedicationStatement/de929cb1560f2392f3de4b04e793c674d4b30fbba1ff10fc5fde0afffc837c9f",
    "resource": {
      "resourceType": "MedicationStatement",
      "meta": {
        "profile": [ "https://www.netzwerk-universitaetsmedizin.de/fhir/StructureDefinition/pharmacological-therapy" ]
      },
      "identifier": [ {
        "system": "https://mein.krankenhaus.de/fhir/NamingSystem/medicationstatementId",
        "value": "ac19836f1886c70b7e994851bc1b3501fd13118a2715ffdbe2e72cbc9c06f45f"
      } ],
      "status": "not-taken",
      "medicationCodeableConcept": {
        "coding": [ {
          "system": "http://fdasis.nlm.nih.gov",
          "code": "3QKI37EEHE"
        }, {
          "system": "http://snomed.info/sct",
          "code": "870518005"
        } ]
      },
      "subject": {
        "reference": "Patient/7a78511c2ce57c68d66d5ec5ddf39fe2ca7a9445b2e4c719f4e189efbe89cddd"
      },
      "effectiveDateTime": "2020-05-30T17:13:00+00:00"
    },
    "request": {
      "method": "POST",
      "url": "MedicationStatement",
      "ifNoneExist": "identifier=https://mein.krankenhaus.de/fhir/NamingSystem/medicationstatementId|de929cb1560f2392f3de4b04e793c674d4b30fbba1ff10fc5fde0afffc837c9f"
    }
  }, {
    "fullUrl": "MedicationStatement/5f720cce8647f804f7acce9815e31dc83d5eb24312481ecb40af2d495795efc2",
    "resource": {
      "resourceType": "MedicationStatement",
      "meta": {
        "profile": [ "https://www.netzwerk-universitaetsmedizin.de/fhir/StructureDefinition/pharmacological-therapy" ]
      },
      "identifier": [ {
        "system": "https://mein.krankenhaus.de/fhir/NamingSystem/medicationstatementId",
        "value": "4f7706eac1ad46933e23ec5a63a624205ab4faa6f5fe3eaf68d8df1cc4ba4cdd"
      } ],
      "status": "not-taken",
      "medicationCodeableConcept": {
        "coding": [ {
          "system": "http://fhir.de/CodeSystem/dimdi/atc",
          "code": "J05AP01"
        }, {
          "system": "http://snomed.info/sct",
          "code": "35063004"
        } ]
      },
      "subject": {
        "reference": "Patient/7a78511c2ce57c68d66d5ec5ddf39fe2ca7a9445b2e4c719f4e189efbe89cddd"
      },
      "effectiveDateTime": "2020-05-30T17:13:00+00:00"
    },
    "request": {
      "method": "POST",
      "url": "MedicationStatement",
      "ifNoneExist": "identifier=https://mein.krankenhaus.de/fhir/NamingSystem/medicationstatementId|5f720cce8647f804f7acce9815e31dc83d5eb24312481ecb40af2d495795efc2"
    }
  }, {
    "fullUrl": "MedicationStatement/7293ff384227a5c5001c0654ffbecf4eae75483408b07ebfd9a3228bbd7896f2",
    "resource": {
      "resourceType": "MedicationStatement",
      "meta": {
        "profile": [ "https://www.netzwerk-universitaetsmedizin.de/fhir/StructureDefinition/pharmacological-therapy" ]
      },
      "identifier": [ {
        "system": "https://mein.krankenhaus.de/fhir/NamingSystem/medicationstatementId",
        "value": "420747a247740381b1382704a68d1370834aae1074ff88aea4877daef006c046"
      } ],
      "status": "active",
      "medicationCodeableConcept": {
        "coding": [ {
          "system": "http://fhir.de/CodeSystem/dimdi/atc",
          "code": "B02AB04"
        }, {
          "system": "https://www.netzwerk-universitaetsmedizin.de/fhir/CodeSystem/ecrf-parameter-codes",
          "code": "camostat"
        } ]
      },
      "subject": {
        "reference": "Patient/7a78511c2ce57c68d66d5ec5ddf39fe2ca7a9445b2e4c719f4e189efbe89cddd"
      },
      "effectiveDateTime": "2020-05-30T17:13:00+00:00"
    },
    "request": {
      "method": "POST",
      "url": "MedicationStatement",
      "ifNoneExist": "identifier=https://mein.krankenhaus.de/fhir/NamingSystem/medicationstatementId|7293ff384227a5c5001c0654ffbecf4eae75483408b07ebfd9a3228bbd7896f2"
    }
  }, {
    "fullUrl": "MedicationStatement/a4f5983d5903fd2ae5f73f8d7be23685307ebfe364eebd88fdafcdaabcda0da9",
    "resource": {
      "resourceType": "MedicationStatement",
      "meta": {
        "profile": [ "https://www.netzwerk-universitaetsmedizin.de/fhir/StructureDefinition/pharmacological-therapy" ]
      },
      "identifier": [ {
        "system": "https://mein.krankenhaus.de/fhir/NamingSystem/medicationstatementId",
        "value": "0c151da234a4a57d34d650bb607c1060fcfdef0064588927718f92dccf3ef059"
      } ],
      "status": "unknown",
      "medicationCodeableConcept": {
        "coding": [ {
          "system": "http://fhir.de/CodeSystem/dimdi/atc",
          "code": "J05AX27"
        }, {
          "system": "https://www.netzwerk-universitaetsmedizin.de/fhir/CodeSystem/ecrf-parameter-codes",
          "code": "favipiravir"
        } ]
      },
      "subject": {
        "reference": "Patient/7a78511c2ce57c68d66d5ec5ddf39fe2ca7a9445b2e4c719f4e189efbe89cddd"
      },
      "effectiveDateTime": "2020-05-30T17:13:00+00:00"
    },
    "request": {
      "method": "POST",
      "url": "MedicationStatement",
      "ifNoneExist": "identifier=https://mein.krankenhaus.de/fhir/NamingSystem/medicationstatementId|a4f5983d5903fd2ae5f73f8d7be23685307ebfe364eebd88fdafcdaabcda0da9"
    }
  }, {
    "fullUrl": "MedicationStatement/0dd0782c0ad8f4984fe6075d15eb310bdd4fd06e5c576e9259f3fd12741fe640",
    "resource": {
      "resourceType": "MedicationStatement",
      "meta": {
        "profile": [ "https://www.netzwerk-universitaetsmedizin.de/fhir/StructureDefinition/pharmacological-therapy" ]
      },
      "identifier": [ {
        "system": "https://mein.krankenhaus.de/fhir/NamingSystem/medicationstatementId",
        "value": "a94b978834be26c7e6ad613fbe92001f4ad7289d941c27aee15ad66547df5312"
      } ],
      "status": "unknown",
      "medicationCodeableConcept": {
        "coding": [ {
          "system": "urn:oid:2.16.840.1.113883.6.18.2.6",
          "code": "E9743"
        }, {
          "system": "urn:oid:2.16.840.1.113883.6.18.2.6",
          "code": "E9744"
        }, {
          "system": "urn:oid:2.16.840.1.113883.6.18.2.6",
          "code": "E9745"
        }, {
          "system": "urn:oid:2.16.840.1.113883.6.18.2.6",
          "code": "E9746"
        }, {
          "system": "urn:oid:2.16.840.1.113883.6.18.2.6",
          "code": "E9747"
        }, {
          "system": "urn:oid:2.16.840.1.113883.6.18.2.6",
          "code": "E9748"
        }, {
          "system": "urn:oid:2.16.840.1.113883.6.18.2.6",
          "code": "E9749"
        }, {
          "system": "urn:oid:2.16.840.1.113883.6.18.2.6",
          "code": "E9750"
        }, {
          "system": "urn:oid:2.16.840.1.113883.6.18.2.6",
          "code": "E9752"
        }, {
          "system": "https://www.netzwerk-universitaetsmedizin.de/fhir/CodeSystem/ecrf-parameter-codes",
          "code": "convalescent-plasma"
        } ]
      },
      "subject": {
        "reference": "Patient/7a78511c2ce57c68d66d5ec5ddf39fe2ca7a9445b2e4c719f4e189efbe89cddd"
      },
      "effectiveDateTime": "2020-05-30T17:13:00+00:00"
    },
    "request": {
      "method": "POST",
      "url": "MedicationStatement",
      "ifNoneExist": "identifier=https://mein.krankenhaus.de/fhir/NamingSystem/medicationstatementId|0dd0782c0ad8f4984fe6075d15eb310bdd4fd06e5c576e9259f3fd12741fe640"
    }
  }, {
    "fullUrl": "MedicationStatement/b0887d057116b18174acea2043287e7cb076e9cc74830769d3d4de034f44bfd8",
    "resource": {
      "resourceType": "MedicationStatement",
      "meta": {
        "profile": [ "https://www.netzwerk-universitaetsmedizin.de/fhir/StructureDefinition/pharmacological-therapy" ]
      },
      "identifier": [ {
        "system": "https://mein.krankenhaus.de/fhir/NamingSystem/medicationstatementId",
        "value": "b24f371467912e60411916ec555ff27c83cd9fdd3ffa59d322b0786ec07e2e89"
      } ],
      "status": "unknown",
      "medicationCodeableConcept": {
        "coding": [ {
          "system": "https://www.netzwerk-universitaetsmedizin.de/fhir/CodeSystem/ecrf-parameter-codes",
          "code": "steroids-gt"
        } ]
      },
      "subject": {
        "reference": "Patient/7a78511c2ce57c68d66d5ec5ddf39fe2ca7a9445b2e4c719f4e189efbe89cddd"
      },
      "effectiveDateTime": "2020-05-30T17:13:00+00:00"
    },
    "request": {
      "method": "POST",
      "url": "MedicationStatement",
      "ifNoneExist": "identifier=https://mein.krankenhaus.de/fhir/NamingSystem/medicationstatementId|b0887d057116b18174acea2043287e7cb076e9cc74830769d3d4de034f44bfd8"
    }
  }, {
    "fullUrl": "MedicationStatement/296f5ee25ec3999bfee706f64cb8ea5cc1c6a8329de9780376d8de70e8aaacdc",
    "resource": {
      "resourceType": "MedicationStatement",
      "meta": {
        "profile": [ "https://www.netzwerk-universitaetsmedizin.de/fhir/StructureDefinition/pharmacological-therapy" ]
      },
      "identifier": [ {
        "system": "https://mein.krankenhaus.de/fhir/NamingSystem/medicationstatementId",
        "value": "d2187e29f59feffdfc92a22e8f106b23473d3967502a6ae1841b40ee6ae4697c"
      } ],
      "status": "active",
      "medicationCodeableConcept": {
        "coding": [ {
          "system": "https://www.netzwerk-universitaetsmedizin.de/fhir/CodeSystem/ecrf-parameter-codes",
          "code": "steroids-lt"
        } ]
      },
      "subject": {
        "reference": "Patient/7a78511c2ce57c68d66d5ec5ddf39fe2ca7a9445b2e4c719f4e189efbe89cddd"
      },
      "effectiveDateTime": "2020-05-30T17:13:00+00:00"
    },
    "request": {
      "method": "POST",
      "url": "MedicationStatement",
      "ifNoneExist": "identifier=https://mein.krankenhaus.de/fhir/NamingSystem/medicationstatementId|296f5ee25ec3999bfee706f64cb8ea5cc1c6a8329de9780376d8de70e8aaacdc"
    }
  }, {
    "fullUrl": "MedicationStatement/91e0ec76f2f5a87497133bb3085b189eb2f56108e9c9994e3d06e3b8d584cfd9",
    "resource": {
      "resourceType": "MedicationStatement",
      "meta": {
        "profile": [ "https://www.netzwerk-universitaetsmedizin.de/fhir/StructureDefinition/pharmacological-therapy" ]
      },
      "identifier": [ {
        "system": "https://mein.krankenhaus.de/fhir/NamingSystem/medicationstatementId",
        "value": "d0326553159cc72b15eded417add8f36b39301796adeec3cfc840163425f7a40"
      } ],
      "status": "active",
      "medicationCodeableConcept": {
        "coding": [ {
          "system": "http://fhir.de/CodeSystem/dimdi/atc",
          "code": "L04AC07"
        } ]
      },
      "subject": {
        "reference": "Patient/7a78511c2ce57c68d66d5ec5ddf39fe2ca7a9445b2e4c719f4e189efbe89cddd"
      },
      "effectiveDateTime": "2020-05-30T17:13:00+00:00"
    },
    "request": {
      "method": "POST",
      "url": "MedicationStatement",
      "ifNoneExist": "identifier=https://mein.krankenhaus.de/fhir/NamingSystem/medicationstatementId|91e0ec76f2f5a87497133bb3085b189eb2f56108e9c9994e3d06e3b8d584cfd9"
    }
  }, {
    "fullUrl": "MedicationStatement/64d04b8a5710105c626955c7c85264a53cf5daee3e567af19a52a11905b472f5",
    "resource": {
      "resourceType": "MedicationStatement",
      "meta": {
        "profile": [ "https://www.netzwerk-universitaetsmedizin.de/fhir/StructureDefinition/pharmacological-therapy" ]
      },
      "identifier": [ {
        "system": "https://mein.krankenhaus.de/fhir/NamingSystem/medicationstatementId",
        "value": "ab96bdf262c5575fd6e0bc7f0d086dd911ecb646e082b906eda492cb8e0b4c8c"
      } ],
      "status": "not-taken",
      "medicationCodeableConcept": {
        "coding": [ {
          "system": "http://fhir.de/CodeSystem/dimdi/ops",
          "code": "6-00a.g"
        }, {
          "system": "http://fhir.de/CodeSystem/dimdi/atc",
          "code": "L04AC14"
        }, {
          "system": "http://snomed.info/sct",
          "code": "763522001"
        } ]
      },
      "subject": {
        "reference": "Patient/7a78511c2ce57c68d66d5ec5ddf39fe2ca7a9445b2e4c719f4e189efbe89cddd"
      },
      "effectiveDateTime": "2020-05-30T17:13:00+00:00"
    },
    "request": {
      "method": "POST",
      "url": "MedicationStatement",
      "ifNoneExist": "identifier=https://mein.krankenhaus.de/fhir/NamingSystem/medicationstatementId|64d04b8a5710105c626955c7c85264a53cf5daee3e567af19a52a11905b472f5"
    }
  }, {
    "fullUrl": "MedicationStatement/2776e392fe45133e3edfb79b4fdfd6e30dab919617ca250e354d92816b5640c1",
    "resource": {
      "resourceType": "MedicationStatement",
      "meta": {
        "profile": [ "https://www.netzwerk-universitaetsmedizin.de/fhir/StructureDefinition/pharmacological-therapy" ]
      },
      "identifier": [ {
        "system": "https://mein.krankenhaus.de/fhir/NamingSystem/medicationstatementId",
        "value": "9f379946e900a5d8c3f88ad4419ef4dec8362f5e145d7b8c2031e5b88b49cf58"
      } ],
      "status": "unknown",
      "medicationCodeableConcept": {
        "coding": [ {
          "system": "http://fhir.de/CodeSystem/dimdi/ops",
          "code": "6-005.8"
        }, {
          "system": "http://fhir.de/CodeSystem/dimdi/ops",
          "code": "6-004.e"
        }, {
          "system": "http://fhir.de/CodeSystem/dimdi/atc",
          "code": "L01XE10"
        }, {
          "system": "http://fhir.de/CodeSystem/dimdi/atc",
          "code": "S01XA18"
        }, {
          "system": "http://fhir.de/CodeSystem/dimdi/atc",
          "code": "L01XE18"
        }, {
          "system": "http://fhir.de/CodeSystem/dimdi/atc",
          "code": "L04AA18"
        }, {
          "system": "http://fhir.de/CodeSystem/dimdi/atc",
          "code": "L04AA10"
        }, {
          "system": "http://fhir.de/CodeSystem/dimdi/atc",
          "code": "D11AH01"
        }, {
          "system": "http://fhir.de/CodeSystem/dimdi/atc",
          "code": "L04AD"
        }, {
          "system": "http://fhir.de/CodeSystem/dimdi/atc",
          "code": "L04AB"
        }, {
          "system": "http://snomed.info/sct",
          "code": "416587008"
        } ]
      },
      "subject": {
        "reference": "Patient/7a78511c2ce57c68d66d5ec5ddf39fe2ca7a9445b2e4c719f4e189efbe89cddd"
      },
      "effectiveDateTime": "2020-05-30T17:13:00+00:00"
    },
    "request": {
      "method": "POST",
      "url": "MedicationStatement",
      "ifNoneExist": "identifier=https://mein.krankenhaus.de/fhir/NamingSystem/medicationstatementId|2776e392fe45133e3edfb79b4fdfd6e30dab919617ca250e354d92816b5640c1"
    }
  }, {
    "fullUrl": "MedicationStatement/7c4e5a86bc22ce7b22dbd0e9d0db90f218794485e98a409def0d68dee53beda7",
    "resource": {
      "resourceType": "MedicationStatement",
      "meta": {
        "profile": [ "https://www.netzwerk-universitaetsmedizin.de/fhir/StructureDefinition/pharmacological-therapy" ]
      },
      "identifier": [ {
        "system": "https://mein.krankenhaus.de/fhir/NamingSystem/medicationstatementId",
        "value": "e350f4df62ed8d12bbcd314ca9bfbb2896b2ffd5ce0844c47e3566504cc902c3"
      } ],
      "status": "not-taken",
      "medicationCodeableConcept": {
        "coding": [ {
          "system": "http://fhir.de/CodeSystem/dimdi/ops",
          "code": "6-001.d"
        }, {
          "system": "http://fhir.de/CodeSystem/dimdi/ops",
          "code": "6-002.b"
        }, {
          "system": "http://fhir.de/CodeSystem/dimdi/ops",
          "code": "6-005.7"
        }, {
          "system": "http://fhir.de/CodeSystem/dimdi/ops",
          "code": "6-005.2"
        }, {
          "system": "http://fhir.de/CodeSystem/dimdi/ops",
          "code": "6-001.e"
        }, {
          "system": "http://snomed.info/sct",
          "code": "416897008"
        } ]
      },
      "subject": {
        "reference": "Patient/7a78511c2ce57c68d66d5ec5ddf39fe2ca7a9445b2e4c719f4e189efbe89cddd"
      },
      "effectiveDateTime": "2020-05-30T17:13:00+00:00"
    },
    "request": {
      "method": "POST",
      "url": "MedicationStatement",
      "ifNoneExist": "identifier=https://mein.krankenhaus.de/fhir/NamingSystem/medicationstatementId|7c4e5a86bc22ce7b22dbd0e9d0db90f218794485e98a409def0d68dee53beda7"
    }
  }, {
    "fullUrl": "MedicationStatement/a5a96075a6fe0f080165ebe7a219ab2527edc4313348e447bd4c39192ecb5d3b",
    "resource": {
      "resourceType": "MedicationStatement",
      "meta": {
        "profile": [ "https://www.netzwerk-universitaetsmedizin.de/fhir/StructureDefinition/pharmacological-therapy" ]
      },
      "identifier": [ {
        "system": "https://mein.krankenhaus.de/fhir/NamingSystem/medicationstatementId",
        "value": "2fc54d413e9018713309105c382faf9ebacdd1f1f9a3dd05d59eaff1715801aa"
      } ],
      "status": "not-taken",
      "medicationCodeableConcept": {
        "coding": [ {
          "system": "http://fhir.de/CodeSystem/dimdi/ops",
          "code": "6-006.7"
        }, {
          "system": "http://fhir.de/CodeSystem/dimdi/atc",
          "code": "L04AC"
        }, {
          "system": "http://snomed.info/sct",
          "code": "430817009"
        } ]
      },
      "subject": {
        "reference": "Patient/7a78511c2ce57c68d66d5ec5ddf39fe2ca7a9445b2e4c719f4e189efbe89cddd"
      },
      "effectiveDateTime": "2020-05-30T17:13:00+00:00"
    },
    "request": {
      "method": "POST",
      "url": "MedicationStatement",
      "ifNoneExist": "identifier=https://mein.krankenhaus.de/fhir/NamingSystem/medicationstatementId|a5a96075a6fe0f080165ebe7a219ab2527edc4313348e447bd4c39192ecb5d3b"
    }
  }, {
    "fullUrl": "MedicationStatement/a80dfdc0b1846cd65139ea0175888c45aa8b9bb423938e096faa3dbebc997b54",
    "resource": {
      "resourceType": "MedicationStatement",
      "meta": {
        "profile": [ "https://www.netzwerk-universitaetsmedizin.de/fhir/StructureDefinition/pharmacological-therapy" ]
      },
      "identifier": [ {
        "system": "https://mein.krankenhaus.de/fhir/NamingSystem/medicationstatementId",
        "value": "1e6dc8ed74056afe1bcfff666707b9a351b99cdd86ede9d7e0ee4dde1c939d78"
      } ],
      "status": "active",
      "medicationCodeableConcept": {
        "coding": [ {
          "system": "http://fhir.de/CodeSystem/dimdi/ops",
          "code": "6-009.4"
        }, {
          "system": "http://snomed.info/sct",
          "code": "703779004"
        } ]
      },
      "subject": {
        "reference": "Patient/7a78511c2ce57c68d66d5ec5ddf39fe2ca7a9445b2e4c719f4e189efbe89cddd"
      },
      "effectiveDateTime": "2020-05-30T17:13:00+00:00"
    },
    "request": {
      "method": "POST",
      "url": "MedicationStatement",
      "ifNoneExist": "identifier=https://mein.krankenhaus.de/fhir/NamingSystem/medicationstatementId|a80dfdc0b1846cd65139ea0175888c45aa8b9bb423938e096faa3dbebc997b54"
    }
  }, {
    "fullUrl": "MedicationStatement/9b664bc046174ebd1f3c51db9b43efaac4d9021a1d0869c6bdd6cb3ec6e479a3",
    "resource": {
      "resourceType": "MedicationStatement",
      "meta": {
        "profile": [ "https://www.netzwerk-universitaetsmedizin.de/fhir/StructureDefinition/pharmacological-therapy" ]
      },
      "identifier": [ {
        "system": "https://mein.krankenhaus.de/fhir/NamingSystem/medicationstatementId",
        "value": "f09625f85eb6fc7915fb5d88ed0ad1cfb0ae8e160ee355a883f7849b7a49104e"
      } ],
      "status": "not-taken",
      "medicationCodeableConcept": {
        "coding": [ {
          "system": "http://fhir.de/CodeSystem/dimdi/atc",
          "code": "M04AC01"
        }, {
          "system": "http://snomed.info/sct",
          "code": "73133000"
        } ]
      },
      "subject": {
        "reference": "Patient/7a78511c2ce57c68d66d5ec5ddf39fe2ca7a9445b2e4c719f4e189efbe89cddd"
      },
      "effectiveDateTime": "2020-05-30T17:13:00+00:00"
    },
    "request": {
      "method": "POST",
      "url": "MedicationStatement",
      "ifNoneExist": "identifier=https://mein.krankenhaus.de/fhir/NamingSystem/medicationstatementId|9b664bc046174ebd1f3c51db9b43efaac4d9021a1d0869c6bdd6cb3ec6e479a3"
    }
  }, {
    "fullUrl": "MedicationStatement/e92c1e53473699ad503118bf424d4468f5435d96d65f054a1c113a419c15a106",
    "resource": {
      "resourceType": "MedicationStatement",
      "meta": {
        "profile": [ "https://www.netzwerk-universitaetsmedizin.de/fhir/StructureDefinition/pharmacological-therapy" ]
      },
      "identifier": [ {
        "system": "https://mein.krankenhaus.de/fhir/NamingSystem/medicationstatementId",
        "value": "9b9f3ccbccdada4eef1b757dab98dd4e72f303f025a2689b78da4a3b51e49c29"
      } ],
      "status": "not-taken",
      "medicationCodeableConcept": {
        "coding": [ {
          "system": "http://fhir.de/CodeSystem/dimdi/atc",
          "code": "S01AD05"
        }, {
          "system": "http://snomed.info/sct",
          "code": "768865007"
        } ]
      },
      "subject": {
        "reference": "Patient/7a78511c2ce57c68d66d5ec5ddf39fe2ca7a9445b2e4c719f4e189efbe89cddd"
      },
      "effectiveDateTime": "2020-05-30T17:13:00+00:00"
    },
    "request": {
      "method": "POST",
      "url": "MedicationStatement",
      "ifNoneExist": "identifier=https://mein.krankenhaus.de/fhir/NamingSystem/medicationstatementId|e92c1e53473699ad503118bf424d4468f5435d96d65f054a1c113a419c15a106"
    }
  }, {
    "fullUrl": "MedicationStatement/f9e2fa7cd5399cca9d39397891bc7fa783c6773cfaad7062022baddd9dd04cb3",
    "resource": {
      "resourceType": "MedicationStatement",
      "meta": {
        "profile": [ "https://www.netzwerk-universitaetsmedizin.de/fhir/StructureDefinition/pharmacological-therapy" ]
      },
      "identifier": [ {
        "system": "https://mein.krankenhaus.de/fhir/NamingSystem/medicationstatementId",
        "value": "b716db3da34b8985e6c04a0c79263c7a95c4ab875c028c1a38d276a521476caa"
      } ],
      "status": "not-taken",
      "medicationCodeableConcept": {
        "coding": [ {
          "system": "http://fhir.de/CodeSystem/dimdi/atc",
          "code": "A11CC06"
        }, {
          "system": "http://snomed.info/sct",
          "code": "88519001"
        } ]
      },
      "subject": {
        "reference": "Patient/7a78511c2ce57c68d66d5ec5ddf39fe2ca7a9445b2e4c719f4e189efbe89cddd"
      },
      "effectiveDateTime": "2020-05-30T17:13:00+00:00"
    },
    "request": {
      "method": "POST",
      "url": "MedicationStatement",
      "ifNoneExist": "identifier=https://mein.krankenhaus.de/fhir/NamingSystem/medicationstatementId|f9e2fa7cd5399cca9d39397891bc7fa783c6773cfaad7062022baddd9dd04cb3"
    }
  }, {
    "fullUrl": "MedicationStatement/2dca459eec8396e2bb8348ad109abea5b433de8be8343b21d2ecf169735b0e67",
    "resource": {
      "resourceType": "MedicationStatement",
      "meta": {
        "profile": [ "https://www.netzwerk-universitaetsmedizin.de/fhir/StructureDefinition/pharmacological-therapy" ]
      },
      "identifier": [ {
        "system": "https://mein.krankenhaus.de/fhir/NamingSystem/medicationstatementId",
        "value": "8633a102d72a5c107f9c6707f46b4038d39d65ebb9c6a8c067c14255575f1de2"
      } ],
      "status": "unknown",
      "medicationCodeableConcept": {
        "coding": [ {
          "system": "http://fhir.de/CodeSystem/dimdi/atc",
          "code": "A12CB"
        }, {
          "system": "http://snomed.info/sct",
          "code": "764877006"
        } ]
      },
      "subject": {
        "reference": "Patient/7a78511c2ce57c68d66d5ec5ddf39fe2ca7a9445b2e4c719f4e189efbe89cddd"
      },
      "effectiveDateTime": "2020-05-30T17:13:00+00:00"
    },
    "request": {
      "method": "POST",
      "url": "MedicationStatement",
      "ifNoneExist": "identifier=https://mein.krankenhaus.de/fhir/NamingSystem/medicationstatementId|2dca459eec8396e2bb8348ad109abea5b433de8be8343b21d2ecf169735b0e67"
    }
  }, {
    "fullUrl": "MedicationStatement/475058ea0eac7487ef878d79af82b3f99fbecd40660ef8a085511d5eda2f57af",
    "resource": {
      "resourceType": "MedicationStatement",
      "meta": {
        "profile": [ "https://www.netzwerk-universitaetsmedizin.de/fhir/StructureDefinition/pharmacological-therapy" ]
      },
      "identifier": [ {
        "system": "https://mein.krankenhaus.de/fhir/NamingSystem/medicationstatementId",
        "value": "6b94f22d7c1793b627ba4151e95da7a121fdc9cbad7af3789179a2e4bcc22c8d"
      } ],
      "status": "unknown",
      "medicationCodeableConcept": {
        "coding": [ {
          "system": "http://snomed.info/sct",
          "code": "41549009"
        } ],
        "text": "ACE inhibitors"
      },
      "subject": {
        "reference": "Patient/7a78511c2ce57c68d66d5ec5ddf39fe2ca7a9445b2e4c719f4e189efbe89cddd"
      },
      "effectiveDateTime": "2020-05-30T17:13:00+00:00"
    },
    "request": {
      "method": "POST",
      "url": "MedicationStatement",
      "ifNoneExist": "identifier=https://mein.krankenhaus.de/fhir/NamingSystem/medicationstatementId|475058ea0eac7487ef878d79af82b3f99fbecd40660ef8a085511d5eda2f57af"
    }
  }, {
    "fullUrl": "MedicationStatement/e3b64bd7c8d6d9f3dd9db8e17bc4410ce2bb3fa14bd662b1a6c1174338e2c799",
    "resource": {
      "resourceType": "MedicationStatement",
      "meta": {
        "profile": [ "https://www.netzwerk-universitaetsmedizin.de/fhir/StructureDefinition/pharmacological-therapy" ]
      },
      "identifier": [ {
        "system": "https://mein.krankenhaus.de/fhir/NamingSystem/medicationstatementId",
        "value": "d709ce63bf5c69f96268efb7e6a07969c1af169f89d349230c017456a9f92e83"
      } ],
      "status": "active",
      "medicationCodeableConcept": {
        "coding": [ {
          "system": "http://snomed.info/sct",
          "code": "333710000"
        } ],
        "text": "immunoglobulins"
      },
      "subject": {
        "reference": "Patient/7a78511c2ce57c68d66d5ec5ddf39fe2ca7a9445b2e4c719f4e189efbe89cddd"
      },
      "effectiveDateTime": "2020-05-30T17:13:00+00:00"
    },
    "request": {
      "method": "POST",
      "url": "MedicationStatement",
      "ifNoneExist": "identifier=https://mein.krankenhaus.de/fhir/NamingSystem/medicationstatementId|e3b64bd7c8d6d9f3dd9db8e17bc4410ce2bb3fa14bd662b1a6c1174338e2c799"
    }
  }, {
    "fullUrl": "MedicationStatement/5e367a580ab9825d4e64cd4187cd21114bce0ffa599581293e59280e798daa0b",
    "resource": {
      "resourceType": "MedicationStatement",
      "meta": {
        "profile": [ "https://www.netzwerk-universitaetsmedizin.de/fhir/StructureDefinition/pharmacological-therapy" ]
      },
      "identifier": [ {
        "system": "https://mein.krankenhaus.de/fhir/NamingSystem/medicationstatementId",
        "value": "ef1d299b221a91a04bb7edd7f4c5b28a9ff5977515fc23257e3d593ca24b1930"
      } ],
      "status": "unknown",
      "medicationCodeableConcept": {
        "coding": [ {
          "system": "http://fhir.de/CodeSystem/dimdi/atc",
          "code": "N02B"
        }, {
          "system": "https://www.netzwerk-universitaetsmedizin.de/fhir/CodeSystem/ecrf-parameter-codes",
          "code": "antipyretic"
        } ]
      },
      "subject": {
        "reference": "Patient/7a78511c2ce57c68d66d5ec5ddf39fe2ca7a9445b2e4c719f4e189efbe89cddd"
      },
      "effectiveDateTime": "2020-02-13T19:42:00+00:00"
    },
    "request": {
      "method": "POST",
      "url": "MedicationStatement",
      "ifNoneExist": "identifier=https://mein.krankenhaus.de/fhir/NamingSystem/medicationstatementId|5e367a580ab9825d4e64cd4187cd21114bce0ffa599581293e59280e798daa0b"
    }
  }, {
    "fullUrl": "MedicationStatement/007e039e73f1fa083e45869cade2f73177a5cad3e8400990a73599788a8f6095",
    "resource": {
      "resourceType": "MedicationStatement",
      "meta": {
        "profile": [ "https://www.netzwerk-universitaetsmedizin.de/fhir/StructureDefinition/pharmacological-therapy" ]
      },
      "identifier": [ {
        "system": "https://mein.krankenhaus.de/fhir/NamingSystem/medicationstatementId",
        "value": "eec8e494ad44a0eff5fb02f6934625d7101a1c92c513426a966b912bc4a47763"
      } ],
      "status": "not-taken",
      "medicationCodeableConcept": {
        "coding": [ {
          "system": "http://fhir.de/CodeSystem/dimdi/atc",
          "code": "G01B"
        }, {
          "system": "http://fhir.de/CodeSystem/dimdi/atc",
          "code": "H02"
        }, {
          "system": "http://fhir.de/CodeSystem/dimdi/atc",
          "code": "M01BA"
        }, {
          "system": "http://fhir.de/CodeSystem/dimdi/atc",
          "code": "R03AK"
        }, {
          "system": "http://fhir.de/CodeSystem/dimdi/atc",
          "code": "S02B"
        }, {
          "system": "http://fhir.de/CodeSystem/dimdi/atc",
          "code": "R03AL"
        }, {
          "system": "http://snomed.info/sct",
          "code": "768759001"
        } ]
      },
      "subject": {
        "reference": "Patient/7a78511c2ce57c68d66d5ec5ddf39fe2ca7a9445b2e4c719f4e189efbe89cddd"
      },
      "effectiveDateTime": "2020-02-13T19:42:00+00:00"
    },
    "request": {
      "method": "POST",
      "url": "MedicationStatement",
      "ifNoneExist": "identifier=https://mein.krankenhaus.de/fhir/NamingSystem/medicationstatementId|007e039e73f1fa083e45869cade2f73177a5cad3e8400990a73599788a8f6095"
    }
  }, {
    "fullUrl": "MedicationStatement/fe2bea5aa11b2526696cbafd6848a3375a1f20148ce5a0f3fff5bc10b5b56096",
    "resource": {
      "resourceType": "MedicationStatement",
      "meta": {
        "profile": [ "https://www.netzwerk-universitaetsmedizin.de/fhir/StructureDefinition/pharmacological-therapy" ]
      },
      "identifier": [ {
        "system": "https://mein.krankenhaus.de/fhir/NamingSystem/medicationstatementId",
        "value": "d9437771f2f9a98b029bcd72c11c58eaad40017d20727071856478f9b130ade7"
      } ],
      "status": "not-taken",
      "medicationCodeableConcept": {
        "coding": [ {
          "system": "http://fhir.de/CodeSystem/dimdi/atc",
          "code": "J05AE08"
        }, {
          "system": "http://fhir.de/CodeSystem/dimdi/atc",
          "code": "J05AR15"
        }, {
          "system": "http://fhir.de/CodeSystem/dimdi/atc",
          "code": "J05AR23"
        }, {
          "system": "http://snomed.info/sct",
          "code": "413591007"
        } ]
      },
      "subject": {
        "reference": "Patient/7a78511c2ce57c68d66d5ec5ddf39fe2ca7a9445b2e4c719f4e189efbe89cddd"
      },
      "effectiveDateTime": "2020-02-13T19:42:00+00:00"
    },
    "request": {
      "method": "POST",
      "url": "MedicationStatement",
      "ifNoneExist": "identifier=https://mein.krankenhaus.de/fhir/NamingSystem/medicationstatementId|fe2bea5aa11b2526696cbafd6848a3375a1f20148ce5a0f3fff5bc10b5b56096"
    }
  }, {
    "fullUrl": "MedicationStatement/b7f77d5ceeeb084eca7ca1cc154144c54838aa9b85c18e676ab2d39aaa2a96bf",
    "resource": {
      "resourceType": "MedicationStatement",
      "meta": {
        "profile": [ "https://www.netzwerk-universitaetsmedizin.de/fhir/StructureDefinition/pharmacological-therapy" ]
      },
      "identifier": [ {
        "system": "https://mein.krankenhaus.de/fhir/NamingSystem/medicationstatementId",
        "value": "f1d029363719c6c0fb31d996a9fc4f6ce4a64682b9badb492593b28776df58b9"
      } ],
      "status": "unknown",
      "medicationCodeableConcept": {
        "coding": [ {
          "system": "http://fhir.de/CodeSystem/dimdi/atc",
          "code": "J05AR22"
        }, {
          "system": "http://fhir.de/CodeSystem/dimdi/atc",
          "code": "J05AE10"
        }, {
          "system": "http://fhir.de/CodeSystem/dimdi/atc",
          "code": "J05AR14"
        }, {
          "system": "http://snomed.info/sct",
          "code": "424096001"
        } ]
      },
      "subject": {
        "reference": "Patient/7a78511c2ce57c68d66d5ec5ddf39fe2ca7a9445b2e4c719f4e189efbe89cddd"
      },
      "effectiveDateTime": "2020-02-13T19:42:00+00:00"
    },
    "request": {
      "method": "POST",
      "url": "MedicationStatement",
      "ifNoneExist": "identifier=https://mein.krankenhaus.de/fhir/NamingSystem/medicationstatementId|b7f77d5ceeeb084eca7ca1cc154144c54838aa9b85c18e676ab2d39aaa2a96bf"
    }
  }, {
    "fullUrl": "MedicationStatement/c25e6c1a2e091760e3c305f9cd28e9ac191ac6c3cfd2310fb453a3cd8b6cbecf",
    "resource": {
      "resourceType": "MedicationStatement",
      "meta": {
        "profile": [ "https://www.netzwerk-universitaetsmedizin.de/fhir/StructureDefinition/pharmacological-therapy" ]
      },
      "identifier": [ {
        "system": "https://mein.krankenhaus.de/fhir/NamingSystem/medicationstatementId",
        "value": "c0c42292b6e16a0cc550d9b0b994bf01edd606c5ebb013b22a6711193b8a470e"
      } ],
      "status": "not-taken",
      "medicationCodeableConcept": {
        "coding": [ {
          "system": "http://fhir.de/CodeSystem/dimdi/atc",
          "code": "P01BA01"
        }, {
          "system": "http://snomed.info/sct",
          "code": "14728000"
        } ]
      },
      "subject": {
        "reference": "Patient/7a78511c2ce57c68d66d5ec5ddf39fe2ca7a9445b2e4c719f4e189efbe89cddd"
      },
      "effectiveDateTime": "2020-02-13T19:42:00+00:00"
    },
    "request": {
      "method": "POST",
      "url": "MedicationStatement",
      "ifNoneExist": "identifier=https://mein.krankenhaus.de/fhir/NamingSystem/medicationstatementId|c25e6c1a2e091760e3c305f9cd28e9ac191ac6c3cfd2310fb453a3cd8b6cbecf"
    }
  }, {
    "fullUrl": "MedicationStatement/d91b815f6dfb1b1975c54b66b646732d9bb437c484fc2dfee601891f4b3fe5e0",
    "resource": {
      "resourceType": "MedicationStatement",
      "meta": {
        "profile": [ "https://www.netzwerk-universitaetsmedizin.de/fhir/StructureDefinition/pharmacological-therapy" ]
      },
      "identifier": [ {
        "system": "https://mein.krankenhaus.de/fhir/NamingSystem/medicationstatementId",
        "value": "5590065d0176b3f27e98e2f8b23b916cfd417dc97763397db85e97317219b70b"
      } ],
      "status": "not-taken",
      "medicationCodeableConcept": {
        "coding": [ {
          "system": "http://fhir.de/CodeSystem/dimdi/atc",
          "code": "P01BA02"
        }, {
          "system": "http://snomed.info/sct",
          "code": "83490000"
        } ]
      },
      "subject": {
        "reference": "Patient/7a78511c2ce57c68d66d5ec5ddf39fe2ca7a9445b2e4c719f4e189efbe89cddd"
      },
      "effectiveDateTime": "2020-02-13T19:42:00+00:00"
    },
    "request": {
      "method": "POST",
      "url": "MedicationStatement",
      "ifNoneExist": "identifier=https://mein.krankenhaus.de/fhir/NamingSystem/medicationstatementId|d91b815f6dfb1b1975c54b66b646732d9bb437c484fc2dfee601891f4b3fe5e0"
    }
  }, {
    "fullUrl": "MedicationStatement/1a700eed3517f824441fed73ffc3b1a09c1e9e8e9dbd801c7ef1f7c81e7f3af7",
    "resource": {
      "resourceType": "MedicationStatement",
      "meta": {
        "profile": [ "https://www.netzwerk-universitaetsmedizin.de/fhir/StructureDefinition/pharmacological-therapy" ]
      },
      "identifier": [ {
        "system": "https://mein.krankenhaus.de/fhir/NamingSystem/medicationstatementId",
        "value": "cf4aa1910e6922ff16eda41efca575ea1c32baf9dba0892155a578dd45a0ef70"
      } ],
      "status": "not-taken",
      "medicationCodeableConcept": {
        "coding": [ {
          "system": "http://fhir.de/CodeSystem/dimdi/atc",
          "code": "D11AX22"
        }, {
          "system": "http://fhir.de/CodeSystem/dimdi/atc",
          "code": "P02CF01"
        }, {
          "system": "http://snomed.info/sct",
          "code": "96138006"
        } ]
      },
      "subject": {
        "reference": "Patient/7a78511c2ce57c68d66d5ec5ddf39fe2ca7a9445b2e4c719f4e189efbe89cddd"
      },
      "effectiveDateTime": "2020-02-13T19:42:00+00:00"
    },
    "request": {
      "method": "POST",
      "url": "MedicationStatement",
      "ifNoneExist": "identifier=https://mein.krankenhaus.de/fhir/NamingSystem/medicationstatementId|1a700eed3517f824441fed73ffc3b1a09c1e9e8e9dbd801c7ef1f7c81e7f3af7"
    }
  }, {
    "fullUrl": "MedicationStatement/05877a754c56327173364a987c382a0c6838176eb35d7981f141ad6ed10ea6fd",
    "resource": {
      "resourceType": "MedicationStatement",
      "meta": {
        "profile": [ "https://www.netzwerk-universitaetsmedizin.de/fhir/StructureDefinition/pharmacological-therapy" ]
      },
      "identifier": [ {
        "system": "https://mein.krankenhaus.de/fhir/NamingSystem/medicationstatementId",
        "value": "b7bd03ee46304e9a0da4e45fd5948c026851da750c6697e5127454aafe20a010"
      } ],
      "status": "active",
      "medicationCodeableConcept": {
        "coding": [ {
          "system": "http://fhir.de/CodeSystem/dimdi/atc",
          "code": "J05AR10"
        }, {
          "system": "http://snomed.info/sct",
          "code": "134573001"
        } ]
      },
      "subject": {
        "reference": "Patient/7a78511c2ce57c68d66d5ec5ddf39fe2ca7a9445b2e4c719f4e189efbe89cddd"
      },
      "effectiveDateTime": "2020-02-13T19:42:00+00:00"
    },
    "request": {
      "method": "POST",
      "url": "MedicationStatement",
      "ifNoneExist": "identifier=https://mein.krankenhaus.de/fhir/NamingSystem/medicationstatementId|05877a754c56327173364a987c382a0c6838176eb35d7981f141ad6ed10ea6fd"
    }
  }, {
    "fullUrl": "MedicationStatement/86809795c6ee27eb8d33a43f5eda950c8534fc5645e1a8b9484bc346ad40d83d",
    "resource": {
      "resourceType": "MedicationStatement",
      "meta": {
        "profile": [ "https://www.netzwerk-universitaetsmedizin.de/fhir/StructureDefinition/pharmacological-therapy" ]
      },
      "identifier": [ {
        "system": "https://mein.krankenhaus.de/fhir/NamingSystem/medicationstatementId",
        "value": "2f295f8ee910ca085cce6b2940c6f801d03094a4740d05778a540ecbaebb7881"
      } ],
      "status": "not-taken",
      "medicationCodeableConcept": {
        "coding": [ {
          "system": "http://fhir.de/CodeSystem/dimdi/atc",
          "code": "J05AB06"
        }, {
          "system": "http://fhir.de/CodeSystem/dimdi/atc",
          "code": "S01AD09"
        }, {
          "system": "http://snomed.info/sct",
          "code": "78025001"
        } ]
      },
      "subject": {
        "reference": "Patient/7a78511c2ce57c68d66d5ec5ddf39fe2ca7a9445b2e4c719f4e189efbe89cddd"
      },
      "effectiveDateTime": "2020-02-13T19:42:00+00:00"
    },
    "request": {
      "method": "POST",
      "url": "MedicationStatement",
      "ifNoneExist": "identifier=https://mein.krankenhaus.de/fhir/NamingSystem/medicationstatementId|86809795c6ee27eb8d33a43f5eda950c8534fc5645e1a8b9484bc346ad40d83d"
    }
  }, {
    "fullUrl": "MedicationStatement/531a78f71317fa926d97190893cdd3b57cecc69a7d92d8cc0e21393e4155d1ff",
    "resource": {
      "resourceType": "MedicationStatement",
      "meta": {
        "profile": [ "https://www.netzwerk-universitaetsmedizin.de/fhir/StructureDefinition/pharmacological-therapy" ]
      },
      "identifier": [ {
        "system": "https://mein.krankenhaus.de/fhir/NamingSystem/medicationstatementId",
        "value": "0c93f235a8d152f33a25c8209fd506155ad39a6dc8020c44e515a9cadc26a1a6"
      } ],
      "status": "unknown",
      "medicationCodeableConcept": {
        "coding": [ {
          "system": "http://fhir.de/CodeSystem/dimdi/atc",
          "code": "J05AH02"
        }, {
          "system": "http://snomed.info/sct",
          "code": "386142008"
        } ]
      },
      "subject": {
        "reference": "Patient/7a78511c2ce57c68d66d5ec5ddf39fe2ca7a9445b2e4c719f4e189efbe89cddd"
      },
      "effectiveDateTime": "2020-02-13T19:42:00+00:00"
    },
    "request": {
      "method": "POST",
      "url": "MedicationStatement",
      "ifNoneExist": "identifier=https://mein.krankenhaus.de/fhir/NamingSystem/medicationstatementId|531a78f71317fa926d97190893cdd3b57cecc69a7d92d8cc0e21393e4155d1ff"
    }
  }, {
    "fullUrl": "MedicationStatement/f6da1edd14d568440603576da61ccb311ff36ab34fad835244191af5a8b18536",
    "resource": {
      "resourceType": "MedicationStatement",
      "meta": {
        "profile": [ "https://www.netzwerk-universitaetsmedizin.de/fhir/StructureDefinition/pharmacological-therapy" ]
      },
      "identifier": [ {
        "system": "https://mein.krankenhaus.de/fhir/NamingSystem/medicationstatementId",
        "value": "2c475e428232566d4d1a0d21867d3838edb24b2b2153c0359d885575ddd23372"
      } ],
      "status": "unknown",
      "medicationCodeableConcept": {
        "coding": [ {
          "system": "http://fdasis.nlm.nih.gov",
          "code": "3QKI37EEHE"
        }, {
          "system": "http://snomed.info/sct",
          "code": "870518005"
        } ]
      },
      "subject": {
        "reference": "Patient/7a78511c2ce57c68d66d5ec5ddf39fe2ca7a9445b2e4c719f4e189efbe89cddd"
      },
      "effectiveDateTime": "2020-02-13T19:42:00+00:00"
    },
    "request": {
      "method": "POST",
      "url": "MedicationStatement",
      "ifNoneExist": "identifier=https://mein.krankenhaus.de/fhir/NamingSystem/medicationstatementId|f6da1edd14d568440603576da61ccb311ff36ab34fad835244191af5a8b18536"
    }
  }, {
    "fullUrl": "MedicationStatement/c3140075a0102de0a1b8c9205c2a4fb9443460b6e46f3662045c46a520290a4b",
    "resource": {
      "resourceType": "MedicationStatement",
      "meta": {
        "profile": [ "https://www.netzwerk-universitaetsmedizin.de/fhir/StructureDefinition/pharmacological-therapy" ]
      },
      "identifier": [ {
        "system": "https://mein.krankenhaus.de/fhir/NamingSystem/medicationstatementId",
        "value": "597bfa70b81cedf282a34e583c0cce2fa491a6cba2085ec86f9fae8c2a4e2b8a"
      } ],
      "status": "active",
      "medicationCodeableConcept": {
        "coding": [ {
          "system": "http://fhir.de/CodeSystem/dimdi/atc",
          "code": "J05AP01"
        }, {
          "system": "http://snomed.info/sct",
          "code": "35063004"
        } ]
      },
      "subject": {
        "reference": "Patient/7a78511c2ce57c68d66d5ec5ddf39fe2ca7a9445b2e4c719f4e189efbe89cddd"
      },
      "effectiveDateTime": "2020-02-13T19:42:00+00:00"
    },
    "request": {
      "method": "POST",
      "url": "MedicationStatement",
      "ifNoneExist": "identifier=https://mein.krankenhaus.de/fhir/NamingSystem/medicationstatementId|c3140075a0102de0a1b8c9205c2a4fb9443460b6e46f3662045c46a520290a4b"
    }
  }, {
    "fullUrl": "MedicationStatement/ff0a527d40d4e37bc62636e8df40033ed1c8a827cb6f4beed9d525b852b36828",
    "resource": {
      "resourceType": "MedicationStatement",
      "meta": {
        "profile": [ "https://www.netzwerk-universitaetsmedizin.de/fhir/StructureDefinition/pharmacological-therapy" ]
      },
      "identifier": [ {
        "system": "https://mein.krankenhaus.de/fhir/NamingSystem/medicationstatementId",
        "value": "68f354c94fedc71ed826ec67fc95eafaa7f1c0ee30acaf7715157d79f7046354"
      } ],
      "status": "active",
      "medicationCodeableConcept": {
        "coding": [ {
          "system": "http://fhir.de/CodeSystem/dimdi/atc",
          "code": "J05AX27"
        }, {
          "system": "https://www.netzwerk-universitaetsmedizin.de/fhir/CodeSystem/ecrf-parameter-codes",
          "code": "favipiravir"
        } ]
      },
      "subject": {
        "reference": "Patient/7a78511c2ce57c68d66d5ec5ddf39fe2ca7a9445b2e4c719f4e189efbe89cddd"
      },
      "effectiveDateTime": "2020-02-13T19:42:00+00:00"
    },
    "request": {
      "method": "POST",
      "url": "MedicationStatement",
      "ifNoneExist": "identifier=https://mein.krankenhaus.de/fhir/NamingSystem/medicationstatementId|ff0a527d40d4e37bc62636e8df40033ed1c8a827cb6f4beed9d525b852b36828"
    }
  }, {
    "fullUrl": "MedicationStatement/43a944231ac3954473c117644b0de379a28fc932d6432bd6d2270252b23d6b7d",
    "resource": {
      "resourceType": "MedicationStatement",
      "meta": {
        "profile": [ "https://www.netzwerk-universitaetsmedizin.de/fhir/StructureDefinition/pharmacological-therapy" ]
      },
      "identifier": [ {
        "system": "https://mein.krankenhaus.de/fhir/NamingSystem/medicationstatementId",
        "value": "f7c2a55233271cec68bdd3c6ee44f9dc2994e26c08c3fd0855d68a8da4635cbe"
      } ],
      "status": "unknown",
      "medicationCodeableConcept": {
        "coding": [ {
          "system": "urn:oid:2.16.840.1.113883.6.18.2.6",
          "code": "E9743"
        }, {
          "system": "urn:oid:2.16.840.1.113883.6.18.2.6",
          "code": "E9744"
        }, {
          "system": "urn:oid:2.16.840.1.113883.6.18.2.6",
          "code": "E9745"
        }, {
          "system": "urn:oid:2.16.840.1.113883.6.18.2.6",
          "code": "E9746"
        }, {
          "system": "urn:oid:2.16.840.1.113883.6.18.2.6",
          "code": "E9747"
        }, {
          "system": "urn:oid:2.16.840.1.113883.6.18.2.6",
          "code": "E9748"
        }, {
          "system": "urn:oid:2.16.840.1.113883.6.18.2.6",
          "code": "E9749"
        }, {
          "system": "urn:oid:2.16.840.1.113883.6.18.2.6",
          "code": "E9750"
        }, {
          "system": "urn:oid:2.16.840.1.113883.6.18.2.6",
          "code": "E9752"
        }, {
          "system": "https://www.netzwerk-universitaetsmedizin.de/fhir/CodeSystem/ecrf-parameter-codes",
          "code": "convalescent-plasma"
        } ]
      },
      "subject": {
        "reference": "Patient/7a78511c2ce57c68d66d5ec5ddf39fe2ca7a9445b2e4c719f4e189efbe89cddd"
      },
      "effectiveDateTime": "2020-02-13T19:42:00+00:00"
    },
    "request": {
      "method": "POST",
      "url": "MedicationStatement",
      "ifNoneExist": "identifier=https://mein.krankenhaus.de/fhir/NamingSystem/medicationstatementId|43a944231ac3954473c117644b0de379a28fc932d6432bd6d2270252b23d6b7d"
    }
  }, {
    "fullUrl": "MedicationStatement/63391d5d75d9742a23c327d01eada607cc76fad02a511ca929d64c5bebdee154",
    "resource": {
      "resourceType": "MedicationStatement",
      "meta": {
        "profile": [ "https://www.netzwerk-universitaetsmedizin.de/fhir/StructureDefinition/pharmacological-therapy" ]
      },
      "identifier": [ {
        "system": "https://mein.krankenhaus.de/fhir/NamingSystem/medicationstatementId",
        "value": "842a7f98f764d3c6200e631fb3ae1c143ec8c37893792d594540755781cf552a"
      } ],
      "status": "active",
      "medicationCodeableConcept": {
        "coding": [ {
          "system": "https://www.netzwerk-universitaetsmedizin.de/fhir/CodeSystem/ecrf-parameter-codes",
          "code": "steroids-gt"
        } ]
      },
      "subject": {
        "reference": "Patient/7a78511c2ce57c68d66d5ec5ddf39fe2ca7a9445b2e4c719f4e189efbe89cddd"
      },
      "effectiveDateTime": "2020-02-13T19:42:00+00:00"
    },
    "request": {
      "method": "POST",
      "url": "MedicationStatement",
      "ifNoneExist": "identifier=https://mein.krankenhaus.de/fhir/NamingSystem/medicationstatementId|63391d5d75d9742a23c327d01eada607cc76fad02a511ca929d64c5bebdee154"
    }
  }, {
    "fullUrl": "MedicationStatement/ca97357c86599948eb5b5e5ab58b7ebd35cb1dc1f39a554ad3ac8e4f9c05390b",
    "resource": {
      "resourceType": "MedicationStatement",
      "meta": {
        "profile": [ "https://www.netzwerk-universitaetsmedizin.de/fhir/StructureDefinition/pharmacological-therapy" ]
      },
      "identifier": [ {
        "system": "https://mein.krankenhaus.de/fhir/NamingSystem/medicationstatementId",
        "value": "0a97d062c9cd9e4a3c848c729d8b326b4d7bcf8c849991299ad7ea0888fa07e4"
      } ],
      "status": "active",
      "medicationCodeableConcept": {
        "coding": [ {
          "system": "https://www.netzwerk-universitaetsmedizin.de/fhir/CodeSystem/ecrf-parameter-codes",
          "code": "steroids-lt"
        } ]
      },
      "subject": {
        "reference": "Patient/7a78511c2ce57c68d66d5ec5ddf39fe2ca7a9445b2e4c719f4e189efbe89cddd"
      },
      "effectiveDateTime": "2020-02-13T19:42:00+00:00"
    },
    "request": {
      "method": "POST",
      "url": "MedicationStatement",
      "ifNoneExist": "identifier=https://mein.krankenhaus.de/fhir/NamingSystem/medicationstatementId|ca97357c86599948eb5b5e5ab58b7ebd35cb1dc1f39a554ad3ac8e4f9c05390b"
    }
  }, {
    "fullUrl": "MedicationStatement/2bad7875a0838d9d04cbcfdca8360bf456ff621f4db07d0eca06c06a028803af",
    "resource": {
      "resourceType": "MedicationStatement",
      "meta": {
        "profile": [ "https://www.netzwerk-universitaetsmedizin.de/fhir/StructureDefinition/pharmacological-therapy" ]
      },
      "identifier": [ {
        "system": "https://mein.krankenhaus.de/fhir/NamingSystem/medicationstatementId",
        "value": "268138438b0a47cc92ca834323eb65cc8c6c0507f7063b134a8603d04d9c9f7c"
      } ],
      "status": "active",
      "medicationCodeableConcept": {
        "coding": [ {
          "system": "http://fhir.de/CodeSystem/dimdi/atc",
          "code": "L04AC07"
        } ]
      },
      "subject": {
        "reference": "Patient/7a78511c2ce57c68d66d5ec5ddf39fe2ca7a9445b2e4c719f4e189efbe89cddd"
      },
      "effectiveDateTime": "2020-02-13T19:42:00+00:00"
    },
    "request": {
      "method": "POST",
      "url": "MedicationStatement",
      "ifNoneExist": "identifier=https://mein.krankenhaus.de/fhir/NamingSystem/medicationstatementId|2bad7875a0838d9d04cbcfdca8360bf456ff621f4db07d0eca06c06a028803af"
    }
  }, {
    "fullUrl": "MedicationStatement/ecd0d108191a40fa5beddd1c610e70640c2fad2f7e768835985a379b5ffac882",
    "resource": {
      "resourceType": "MedicationStatement",
      "meta": {
        "profile": [ "https://www.netzwerk-universitaetsmedizin.de/fhir/StructureDefinition/pharmacological-therapy" ]
      },
      "identifier": [ {
        "system": "https://mein.krankenhaus.de/fhir/NamingSystem/medicationstatementId",
        "value": "83b24611c4fcd8e25aa04e5ca1427f628f74fc474c8c1a960da8505dd5afe13d"
      } ],
      "status": "unknown",
      "medicationCodeableConcept": {
        "coding": [ {
          "system": "http://fhir.de/CodeSystem/dimdi/ops",
          "code": "6-00a.g"
        }, {
          "system": "http://fhir.de/CodeSystem/dimdi/atc",
          "code": "L04AC14"
        }, {
          "system": "http://snomed.info/sct",
          "code": "763522001"
        } ]
      },
      "subject": {
        "reference": "Patient/7a78511c2ce57c68d66d5ec5ddf39fe2ca7a9445b2e4c719f4e189efbe89cddd"
      },
      "effectiveDateTime": "2020-02-13T19:42:00+00:00"
    },
    "request": {
      "method": "POST",
      "url": "MedicationStatement",
      "ifNoneExist": "identifier=https://mein.krankenhaus.de/fhir/NamingSystem/medicationstatementId|ecd0d108191a40fa5beddd1c610e70640c2fad2f7e768835985a379b5ffac882"
    }
  }, {
    "fullUrl": "MedicationStatement/0f8ba2524dcfb2e56bd0b39303ad3f9e740fca21714592e555b386525961a00b",
    "resource": {
      "resourceType": "MedicationStatement",
      "meta": {
        "profile": [ "https://www.netzwerk-universitaetsmedizin.de/fhir/StructureDefinition/pharmacological-therapy" ]
      },
      "identifier": [ {
        "system": "https://mein.krankenhaus.de/fhir/NamingSystem/medicationstatementId",
        "value": "591a548f0b7a3c0a9796c2450a22e5bd0372fcdb447df46435b978c7d36b2b83"
      } ],
      "status": "not-taken",
      "medicationCodeableConcept": {
        "coding": [ {
          "system": "http://fhir.de/CodeSystem/dimdi/ops",
          "code": "6-005.8"
        }, {
          "system": "http://fhir.de/CodeSystem/dimdi/ops",
          "code": "6-004.e"
        }, {
          "system": "http://fhir.de/CodeSystem/dimdi/atc",
          "code": "L01XE10"
        }, {
          "system": "http://fhir.de/CodeSystem/dimdi/atc",
          "code": "S01XA18"
        }, {
          "system": "http://fhir.de/CodeSystem/dimdi/atc",
          "code": "L01XE18"
        }, {
          "system": "http://fhir.de/CodeSystem/dimdi/atc",
          "code": "L04AA18"
        }, {
          "system": "http://fhir.de/CodeSystem/dimdi/atc",
          "code": "L04AA10"
        }, {
          "system": "http://fhir.de/CodeSystem/dimdi/atc",
          "code": "D11AH01"
        }, {
          "system": "http://fhir.de/CodeSystem/dimdi/atc",
          "code": "L04AD"
        }, {
          "system": "http://fhir.de/CodeSystem/dimdi/atc",
          "code": "L04AB"
        }, {
          "system": "http://snomed.info/sct",
          "code": "416587008"
        } ]
      },
      "subject": {
        "reference": "Patient/7a78511c2ce57c68d66d5ec5ddf39fe2ca7a9445b2e4c719f4e189efbe89cddd"
      },
      "effectiveDateTime": "2020-02-13T19:42:00+00:00"
    },
    "request": {
      "method": "POST",
      "url": "MedicationStatement",
      "ifNoneExist": "identifier=https://mein.krankenhaus.de/fhir/NamingSystem/medicationstatementId|0f8ba2524dcfb2e56bd0b39303ad3f9e740fca21714592e555b386525961a00b"
    }
  }, {
    "fullUrl": "MedicationStatement/e7865abebf320cddb2cf7b1d20aff6b77a1d412f9c04ec7b1ff36c27187cce17",
    "resource": {
      "resourceType": "MedicationStatement",
      "meta": {
        "profile": [ "https://www.netzwerk-universitaetsmedizin.de/fhir/StructureDefinition/pharmacological-therapy" ]
      },
      "identifier": [ {
        "system": "https://mein.krankenhaus.de/fhir/NamingSystem/medicationstatementId",
        "value": "2937b7ae85223ffc8f5875bcfef17943ebaa9ab0b2e8b15b575349c93a79b17f"
      } ],
      "status": "not-taken",
      "medicationCodeableConcept": {
        "coding": [ {
          "system": "http://fhir.de/CodeSystem/dimdi/ops",
          "code": "6-001.d"
        }, {
          "system": "http://fhir.de/CodeSystem/dimdi/ops",
          "code": "6-002.b"
        }, {
          "system": "http://fhir.de/CodeSystem/dimdi/ops",
          "code": "6-005.7"
        }, {
          "system": "http://fhir.de/CodeSystem/dimdi/ops",
          "code": "6-005.2"
        }, {
          "system": "http://fhir.de/CodeSystem/dimdi/ops",
          "code": "6-001.e"
        }, {
          "system": "http://snomed.info/sct",
          "code": "416897008"
        } ]
      },
      "subject": {
        "reference": "Patient/7a78511c2ce57c68d66d5ec5ddf39fe2ca7a9445b2e4c719f4e189efbe89cddd"
      },
      "effectiveDateTime": "2020-02-13T19:42:00+00:00"
    },
    "request": {
      "method": "POST",
      "url": "MedicationStatement",
      "ifNoneExist": "identifier=https://mein.krankenhaus.de/fhir/NamingSystem/medicationstatementId|e7865abebf320cddb2cf7b1d20aff6b77a1d412f9c04ec7b1ff36c27187cce17"
    }
  }, {
    "fullUrl": "MedicationStatement/cef4c6874cb52e11041deef21f82517d513aa0fe9eaa1bafc9d7a9dd7f266f8f",
    "resource": {
      "resourceType": "MedicationStatement",
      "meta": {
        "profile": [ "https://www.netzwerk-universitaetsmedizin.de/fhir/StructureDefinition/pharmacological-therapy" ]
      },
      "identifier": [ {
        "system": "https://mein.krankenhaus.de/fhir/NamingSystem/medicationstatementId",
        "value": "4489ac1d4f40e52a5e2ac006c369adc033a7d0c1ce90d3f9b3c95beb6c6d598c"
      } ],
      "status": "active",
      "medicationCodeableConcept": {
        "coding": [ {
          "system": "http://fhir.de/CodeSystem/dimdi/ops",
          "code": "6-006.7"
        }, {
          "system": "http://fhir.de/CodeSystem/dimdi/atc",
          "code": "L04AC"
        }, {
          "system": "http://snomed.info/sct",
          "code": "430817009"
        } ]
      },
      "subject": {
        "reference": "Patient/7a78511c2ce57c68d66d5ec5ddf39fe2ca7a9445b2e4c719f4e189efbe89cddd"
      },
      "effectiveDateTime": "2020-02-13T19:42:00+00:00"
    },
    "request": {
      "method": "POST",
      "url": "MedicationStatement",
      "ifNoneExist": "identifier=https://mein.krankenhaus.de/fhir/NamingSystem/medicationstatementId|cef4c6874cb52e11041deef21f82517d513aa0fe9eaa1bafc9d7a9dd7f266f8f"
    }
  }, {
    "fullUrl": "MedicationStatement/13ecc32a6872e1748ae5e9a082566e568c2d32ac6c1ddfe8724ab2a4ed606183",
    "resource": {
      "resourceType": "MedicationStatement",
      "meta": {
        "profile": [ "https://www.netzwerk-universitaetsmedizin.de/fhir/StructureDefinition/pharmacological-therapy" ]
      },
      "identifier": [ {
        "system": "https://mein.krankenhaus.de/fhir/NamingSystem/medicationstatementId",
        "value": "9941078a70de2efc1e65609edcdd1c9602836b036a69be85e2fc3d44310feaa4"
      } ],
      "status": "active",
      "medicationCodeableConcept": {
        "coding": [ {
          "system": "http://fhir.de/CodeSystem/dimdi/ops",
          "code": "6-009.4"
        }, {
          "system": "http://snomed.info/sct",
          "code": "703779004"
        } ]
      },
      "subject": {
        "reference": "Patient/7a78511c2ce57c68d66d5ec5ddf39fe2ca7a9445b2e4c719f4e189efbe89cddd"
      },
      "effectiveDateTime": "2020-02-13T19:42:00+00:00"
    },
    "request": {
      "method": "POST",
      "url": "MedicationStatement",
      "ifNoneExist": "identifier=https://mein.krankenhaus.de/fhir/NamingSystem/medicationstatementId|13ecc32a6872e1748ae5e9a082566e568c2d32ac6c1ddfe8724ab2a4ed606183"
    }
  }, {
    "fullUrl": "MedicationStatement/388085ad60a63b0b0388ebed1ba64efe5658c7ca1ed5d84fb3d98064ad47a4fb",
    "resource": {
      "resourceType": "MedicationStatement",
      "meta": {
        "profile": [ "https://www.netzwerk-universitaetsmedizin.de/fhir/StructureDefinition/pharmacological-therapy" ]
      },
      "identifier": [ {
        "system": "https://mein.krankenhaus.de/fhir/NamingSystem/medicationstatementId",
        "value": "05f4b58f1acafbab83f4cf95839217920bf5978fcc9aca31b710f8eb42cf82ab"
      } ],
      "status": "not-taken",
      "medicationCodeableConcept": {
        "coding": [ {
          "system": "http://fhir.de/CodeSystem/dimdi/atc",
          "code": "M04AC01"
        }, {
          "system": "http://snomed.info/sct",
          "code": "73133000"
        } ]
      },
      "subject": {
        "reference": "Patient/7a78511c2ce57c68d66d5ec5ddf39fe2ca7a9445b2e4c719f4e189efbe89cddd"
      },
      "effectiveDateTime": "2020-02-13T19:42:00+00:00"
    },
    "request": {
      "method": "POST",
      "url": "MedicationStatement",
      "ifNoneExist": "identifier=https://mein.krankenhaus.de/fhir/NamingSystem/medicationstatementId|388085ad60a63b0b0388ebed1ba64efe5658c7ca1ed5d84fb3d98064ad47a4fb"
    }
  }, {
    "fullUrl": "MedicationStatement/6beb7297e4a1ef453748ae9fcf58917eab7d7521b5f1b0942230553f0a59ae6d",
    "resource": {
      "resourceType": "MedicationStatement",
      "meta": {
        "profile": [ "https://www.netzwerk-universitaetsmedizin.de/fhir/StructureDefinition/pharmacological-therapy" ]
      },
      "identifier": [ {
        "system": "https://mein.krankenhaus.de/fhir/NamingSystem/medicationstatementId",
        "value": "8fa9d243c7d2da706ab5259ad49597d741a8f2a0432685c2cbf43cb1b2e49010"
      } ],
      "status": "not-taken",
      "medicationCodeableConcept": {
        "coding": [ {
          "system": "http://fhir.de/CodeSystem/dimdi/atc",
          "code": "S01AD05"
        }, {
          "system": "http://snomed.info/sct",
          "code": "768865007"
        } ]
      },
      "subject": {
        "reference": "Patient/7a78511c2ce57c68d66d5ec5ddf39fe2ca7a9445b2e4c719f4e189efbe89cddd"
      },
      "effectiveDateTime": "2020-02-13T19:42:00+00:00"
    },
    "request": {
      "method": "POST",
      "url": "MedicationStatement",
      "ifNoneExist": "identifier=https://mein.krankenhaus.de/fhir/NamingSystem/medicationstatementId|6beb7297e4a1ef453748ae9fcf58917eab7d7521b5f1b0942230553f0a59ae6d"
    }
  }, {
    "fullUrl": "MedicationStatement/e2ff485f4ff9f7e534a031c1bb17ae361e60b07075e7d3e96e0064a23147bbd9",
    "resource": {
      "resourceType": "MedicationStatement",
      "meta": {
        "profile": [ "https://www.netzwerk-universitaetsmedizin.de/fhir/StructureDefinition/pharmacological-therapy" ]
      },
      "identifier": [ {
        "system": "https://mein.krankenhaus.de/fhir/NamingSystem/medicationstatementId",
        "value": "26c4dec6939245668a185e42e650b41685219611cf05c5245faa303245a9deaa"
      } ],
      "status": "active",
      "medicationCodeableConcept": {
        "coding": [ {
          "system": "http://fhir.de/CodeSystem/dimdi/atc",
          "code": "A11CC06"
        }, {
          "system": "http://snomed.info/sct",
          "code": "88519001"
        } ]
      },
      "subject": {
        "reference": "Patient/7a78511c2ce57c68d66d5ec5ddf39fe2ca7a9445b2e4c719f4e189efbe89cddd"
      },
      "effectiveDateTime": "2020-02-13T19:42:00+00:00"
    },
    "request": {
      "method": "POST",
      "url": "MedicationStatement",
      "ifNoneExist": "identifier=https://mein.krankenhaus.de/fhir/NamingSystem/medicationstatementId|e2ff485f4ff9f7e534a031c1bb17ae361e60b07075e7d3e96e0064a23147bbd9"
    }
  }, {
    "fullUrl": "MedicationStatement/91d59986770d4f2fec5f45d6a2adc227f673d7e4ffc4511c9535aa677291d06d",
    "resource": {
      "resourceType": "MedicationStatement",
      "meta": {
        "profile": [ "https://www.netzwerk-universitaetsmedizin.de/fhir/StructureDefinition/pharmacological-therapy" ]
      },
      "identifier": [ {
        "system": "https://mein.krankenhaus.de/fhir/NamingSystem/medicationstatementId",
        "value": "849661ff818b0713d8488b82f171ec86721039fb69dbfdf73e3fe902bebe5e56"
      } ],
      "status": "unknown",
      "medicationCodeableConcept": {
        "coding": [ {
          "system": "http://fhir.de/CodeSystem/dimdi/atc",
          "code": "A12CB"
        }, {
          "system": "http://snomed.info/sct",
          "code": "764877006"
        } ]
      },
      "subject": {
        "reference": "Patient/7a78511c2ce57c68d66d5ec5ddf39fe2ca7a9445b2e4c719f4e189efbe89cddd"
      },
      "effectiveDateTime": "2020-02-13T19:42:00+00:00"
    },
    "request": {
      "method": "POST",
      "url": "MedicationStatement",
      "ifNoneExist": "identifier=https://mein.krankenhaus.de/fhir/NamingSystem/medicationstatementId|91d59986770d4f2fec5f45d6a2adc227f673d7e4ffc4511c9535aa677291d06d"
    }
  }, {
    "fullUrl": "MedicationStatement/1574a8f746ab46881309bd278670fc2492655cfee012088694b5d874d1ef3e27",
    "resource": {
      "resourceType": "MedicationStatement",
      "meta": {
        "profile": [ "https://www.netzwerk-universitaetsmedizin.de/fhir/StructureDefinition/pharmacological-therapy" ]
      },
      "identifier": [ {
        "system": "https://mein.krankenhaus.de/fhir/NamingSystem/medicationstatementId",
        "value": "c98e4701b11cccd06cba6fe58f9247ac93a8551c067f40c2ae1e04cd17f75880"
      } ],
      "status": "unknown",
      "medicationCodeableConcept": {
        "coding": [ {
          "system": "http://snomed.info/sct",
          "code": "41549009"
        } ],
        "text": "ACE inhibitors"
      },
      "subject": {
        "reference": "Patient/7a78511c2ce57c68d66d5ec5ddf39fe2ca7a9445b2e4c719f4e189efbe89cddd"
      },
      "effectiveDateTime": "2020-02-13T19:42:00+00:00"
    },
    "request": {
      "method": "POST",
      "url": "MedicationStatement",
      "ifNoneExist": "identifier=https://mein.krankenhaus.de/fhir/NamingSystem/medicationstatementId|1574a8f746ab46881309bd278670fc2492655cfee012088694b5d874d1ef3e27"
    }
  }, {
    "fullUrl": "MedicationStatement/c79b439249fca80e83db4253109ac7381fc1f6ba95616b56b09843463c3d7b5c",
    "resource": {
      "resourceType": "MedicationStatement",
      "meta": {
        "profile": [ "https://www.netzwerk-universitaetsmedizin.de/fhir/StructureDefinition/pharmacological-therapy" ]
      },
      "identifier": [ {
        "system": "https://mein.krankenhaus.de/fhir/NamingSystem/medicationstatementId",
        "value": "42be210b503e8a9812a732f232c1a7bde660514b10e1669416bad81f4d31ba9f"
      } ],
      "status": "active",
      "medicationCodeableConcept": {
        "coding": [ {
          "system": "http://snomed.info/sct",
          "code": "333710000"
        } ],
        "text": "immunoglobulins"
      },
      "subject": {
        "reference": "Patient/7a78511c2ce57c68d66d5ec5ddf39fe2ca7a9445b2e4c719f4e189efbe89cddd"
      },
      "effectiveDateTime": "2020-02-13T19:42:00+00:00"
    },
    "request": {
      "method": "POST",
      "url": "MedicationStatement",
      "ifNoneExist": "identifier=https://mein.krankenhaus.de/fhir/NamingSystem/medicationstatementId|c79b439249fca80e83db4253109ac7381fc1f6ba95616b56b09843463c3d7b5c"
    }
  }, {
    "fullUrl": "MedicationStatement/0cb4c3b997b9f62f6532025c505526c0b2d02f7607352f05879ba55a65a4b3a1",
    "resource": {
      "resourceType": "MedicationStatement",
      "meta": {
        "profile": [ "https://www.netzwerk-universitaetsmedizin.de/fhir/StructureDefinition/pharmacological-therapy" ]
      },
      "identifier": [ {
        "system": "https://mein.krankenhaus.de/fhir/NamingSystem/medicationstatementId",
        "value": "738a378cb36fbcd5cc85db38ef933addd3a0561f2479f815b1352bd3d3fbc236"
      } ],
      "status": "not-taken",
      "medicationCodeableConcept": {
        "coding": [ {
          "system": "http://fhir.de/CodeSystem/dimdi/atc",
          "code": "N02B"
        }, {
          "system": "https://www.netzwerk-universitaetsmedizin.de/fhir/CodeSystem/ecrf-parameter-codes",
          "code": "antipyretic"
        } ]
      },
      "subject": {
        "reference": "Patient/7a78511c2ce57c68d66d5ec5ddf39fe2ca7a9445b2e4c719f4e189efbe89cddd"
      },
      "effectiveDateTime": "2020-03-09T14:58:00+00:00"
    },
    "request": {
      "method": "POST",
      "url": "MedicationStatement",
      "ifNoneExist": "identifier=https://mein.krankenhaus.de/fhir/NamingSystem/medicationstatementId|0cb4c3b997b9f62f6532025c505526c0b2d02f7607352f05879ba55a65a4b3a1"
    }
  }, {
    "fullUrl": "MedicationStatement/9736cfc41def92cfe358d923e2f3d2c3bb503c2df75f8281b4a45f0a9c64cd96",
    "resource": {
      "resourceType": "MedicationStatement",
      "meta": {
        "profile": [ "https://www.netzwerk-universitaetsmedizin.de/fhir/StructureDefinition/pharmacological-therapy" ]
      },
      "identifier": [ {
        "system": "https://mein.krankenhaus.de/fhir/NamingSystem/medicationstatementId",
        "value": "73436b513c4090ce7d5a5342115d06a086353be438fbc65de083f5d96730acf1"
      } ],
      "status": "not-taken",
      "medicationCodeableConcept": {
        "coding": [ {
          "system": "http://fhir.de/CodeSystem/dimdi/atc",
          "code": "G01B"
        }, {
          "system": "http://fhir.de/CodeSystem/dimdi/atc",
          "code": "H02"
        }, {
          "system": "http://fhir.de/CodeSystem/dimdi/atc",
          "code": "M01BA"
        }, {
          "system": "http://fhir.de/CodeSystem/dimdi/atc",
          "code": "R03AK"
        }, {
          "system": "http://fhir.de/CodeSystem/dimdi/atc",
          "code": "S02B"
        }, {
          "system": "http://fhir.de/CodeSystem/dimdi/atc",
          "code": "R03AL"
        }, {
          "system": "http://snomed.info/sct",
          "code": "768759001"
        } ]
      },
      "subject": {
        "reference": "Patient/7a78511c2ce57c68d66d5ec5ddf39fe2ca7a9445b2e4c719f4e189efbe89cddd"
      },
      "effectiveDateTime": "2020-03-09T14:58:00+00:00"
    },
    "request": {
      "method": "POST",
      "url": "MedicationStatement",
      "ifNoneExist": "identifier=https://mein.krankenhaus.de/fhir/NamingSystem/medicationstatementId|9736cfc41def92cfe358d923e2f3d2c3bb503c2df75f8281b4a45f0a9c64cd96"
    }
  }, {
    "fullUrl": "MedicationStatement/437ad0dfccac7a5a8219ea0319d1762412e0ed1200bf4e7700792f2d71110fce",
    "resource": {
      "resourceType": "MedicationStatement",
      "meta": {
        "profile": [ "https://www.netzwerk-universitaetsmedizin.de/fhir/StructureDefinition/pharmacological-therapy" ]
      },
      "identifier": [ {
        "system": "https://mein.krankenhaus.de/fhir/NamingSystem/medicationstatementId",
        "value": "61b9b9550414012e715003199abaf644c80188efa4cd06c6d40de75b837d5e8d"
      } ],
      "status": "active",
      "medicationCodeableConcept": {
        "coding": [ {
          "system": "http://fhir.de/CodeSystem/dimdi/atc",
          "code": "J05AE08"
        }, {
          "system": "http://fhir.de/CodeSystem/dimdi/atc",
          "code": "J05AR15"
        }, {
          "system": "http://fhir.de/CodeSystem/dimdi/atc",
          "code": "J05AR23"
        }, {
          "system": "http://snomed.info/sct",
          "code": "413591007"
        } ]
      },
      "subject": {
        "reference": "Patient/7a78511c2ce57c68d66d5ec5ddf39fe2ca7a9445b2e4c719f4e189efbe89cddd"
      },
      "effectiveDateTime": "2020-03-09T14:58:00+00:00"
    },
    "request": {
      "method": "POST",
      "url": "MedicationStatement",
      "ifNoneExist": "identifier=https://mein.krankenhaus.de/fhir/NamingSystem/medicationstatementId|437ad0dfccac7a5a8219ea0319d1762412e0ed1200bf4e7700792f2d71110fce"
    }
  }, {
    "fullUrl": "MedicationStatement/ed7f5badd1033bca00c8a4dd71d7cb9d72b6799be239354a9720ca6d9e23bcfa",
    "resource": {
      "resourceType": "MedicationStatement",
      "meta": {
        "profile": [ "https://www.netzwerk-universitaetsmedizin.de/fhir/StructureDefinition/pharmacological-therapy" ]
      },
      "identifier": [ {
        "system": "https://mein.krankenhaus.de/fhir/NamingSystem/medicationstatementId",
        "value": "fd26a755e0ca07ee05e030a64d3fb8b67c129ef121dd3fceedf4d4adc81f5fbe"
      } ],
      "status": "active",
      "medicationCodeableConcept": {
        "coding": [ {
          "system": "http://fhir.de/CodeSystem/dimdi/atc",
          "code": "J05AE10"
        } ]
      },
      "subject": {
        "reference": "Patient/7a78511c2ce57c68d66d5ec5ddf39fe2ca7a9445b2e4c719f4e189efbe89cddd"
      },
      "effectiveDateTime": "2020-03-09T14:58:00+00:00"
    },
    "request": {
      "method": "POST",
      "url": "MedicationStatement",
      "ifNoneExist": "identifier=https://mein.krankenhaus.de/fhir/NamingSystem/medicationstatementId|ed7f5badd1033bca00c8a4dd71d7cb9d72b6799be239354a9720ca6d9e23bcfa"
    }
  }, {
    "fullUrl": "MedicationStatement/27ced0ff24e8ea88fdfb50f486413eb0f4ffe114b496f91001a13cccf052570d",
    "resource": {
      "resourceType": "MedicationStatement",
      "meta": {
        "profile": [ "https://www.netzwerk-universitaetsmedizin.de/fhir/StructureDefinition/pharmacological-therapy" ]
      },
      "identifier": [ {
        "system": "https://mein.krankenhaus.de/fhir/NamingSystem/medicationstatementId",
        "value": "d0804e74236e86d8e40c7774ebf80fbdf462a1ba929d06bdc722727676487f2e"
      } ],
      "status": "unknown",
      "medicationCodeableConcept": {
        "coding": [ {
          "system": "http://fhir.de/CodeSystem/dimdi/atc",
          "code": "P01BA01"
        }, {
          "system": "http://snomed.info/sct",
          "code": "14728000"
        } ]
      },
      "subject": {
        "reference": "Patient/7a78511c2ce57c68d66d5ec5ddf39fe2ca7a9445b2e4c719f4e189efbe89cddd"
      },
      "effectiveDateTime": "2020-03-09T14:58:00+00:00"
    },
    "request": {
      "method": "POST",
      "url": "MedicationStatement",
      "ifNoneExist": "identifier=https://mein.krankenhaus.de/fhir/NamingSystem/medicationstatementId|27ced0ff24e8ea88fdfb50f486413eb0f4ffe114b496f91001a13cccf052570d"
    }
  }, {
    "fullUrl": "MedicationStatement/8ff65e4c712a6fdbc8418d6df65018769f5345344f4c54b1b5920d8cc2c938a5",
    "resource": {
      "resourceType": "MedicationStatement",
      "meta": {
        "profile": [ "https://www.netzwerk-universitaetsmedizin.de/fhir/StructureDefinition/pharmacological-therapy" ]
      },
      "identifier": [ {
        "system": "https://mein.krankenhaus.de/fhir/NamingSystem/medicationstatementId",
        "value": "e4bfeeea56a12a39b09331f816d8d3537e3f97e0020f699ef8b5de7521c637f4"
      } ],
      "status": "not-taken",
      "medicationCodeableConcept": {
        "coding": [ {
          "system": "http://fhir.de/CodeSystem/dimdi/atc",
          "code": "P01BA02"
        }, {
          "system": "http://snomed.info/sct",
          "code": "83490000"
        } ]
      },
      "subject": {
        "reference": "Patient/7a78511c2ce57c68d66d5ec5ddf39fe2ca7a9445b2e4c719f4e189efbe89cddd"
      },
      "effectiveDateTime": "2020-03-09T14:58:00+00:00"
    },
    "request": {
      "method": "POST",
      "url": "MedicationStatement",
      "ifNoneExist": "identifier=https://mein.krankenhaus.de/fhir/NamingSystem/medicationstatementId|8ff65e4c712a6fdbc8418d6df65018769f5345344f4c54b1b5920d8cc2c938a5"
    }
  }, {
    "fullUrl": "MedicationStatement/c67674f057927c49849438852d8dcd2a78fab41112c32d269e3b3cce4882a833",
    "resource": {
      "resourceType": "MedicationStatement",
      "meta": {
        "profile": [ "https://www.netzwerk-universitaetsmedizin.de/fhir/StructureDefinition/pharmacological-therapy" ]
      },
      "identifier": [ {
        "system": "https://mein.krankenhaus.de/fhir/NamingSystem/medicationstatementId",
        "value": "a36cf2d58aa9438268b4b5824893b07ffd723ff4730b058b0150750977924db9"
      } ],
      "status": "unknown",
      "medicationCodeableConcept": {
        "coding": [ {
          "system": "http://fhir.de/CodeSystem/dimdi/atc",
          "code": "D11AX22"
        }, {
          "system": "http://fhir.de/CodeSystem/dimdi/atc",
          "code": "P02CF01"
        }, {
          "system": "http://snomed.info/sct",
          "code": "96138006"
        } ]
      },
      "subject": {
        "reference": "Patient/7a78511c2ce57c68d66d5ec5ddf39fe2ca7a9445b2e4c719f4e189efbe89cddd"
      },
      "effectiveDateTime": "2020-03-09T14:58:00+00:00"
    },
    "request": {
      "method": "POST",
      "url": "MedicationStatement",
      "ifNoneExist": "identifier=https://mein.krankenhaus.de/fhir/NamingSystem/medicationstatementId|c67674f057927c49849438852d8dcd2a78fab41112c32d269e3b3cce4882a833"
    }
  }, {
    "fullUrl": "MedicationStatement/9d2a5eef0323a79281e665edd6c1ec36de1412c3091131644e7256d06faa95bd",
    "resource": {
      "resourceType": "MedicationStatement",
      "meta": {
        "profile": [ "https://www.netzwerk-universitaetsmedizin.de/fhir/StructureDefinition/pharmacological-therapy" ]
      },
      "identifier": [ {
        "system": "https://mein.krankenhaus.de/fhir/NamingSystem/medicationstatementId",
        "value": "e168fa3a284309fc35c7b59d2952416d781ceb25b72fdb76b9a4d11f5cc33650"
      } ],
      "status": "not-taken",
      "medicationCodeableConcept": {
        "coding": [ {
          "system": "http://fhir.de/CodeSystem/dimdi/atc",
          "code": "J05AR10"
        }, {
          "system": "http://snomed.info/sct",
          "code": "134573001"
        } ]
      },
      "subject": {
        "reference": "Patient/7a78511c2ce57c68d66d5ec5ddf39fe2ca7a9445b2e4c719f4e189efbe89cddd"
      },
      "effectiveDateTime": "2020-03-09T14:58:00+00:00"
    },
    "request": {
      "method": "POST",
      "url": "MedicationStatement",
      "ifNoneExist": "identifier=https://mein.krankenhaus.de/fhir/NamingSystem/medicationstatementId|9d2a5eef0323a79281e665edd6c1ec36de1412c3091131644e7256d06faa95bd"
    }
  }, {
    "fullUrl": "MedicationStatement/1fe3aa29d844c53ff5ad4fb769621e811dcebb626c1c95451a532bbb2d69ad40",
    "resource": {
      "resourceType": "MedicationStatement",
      "meta": {
        "profile": [ "https://www.netzwerk-universitaetsmedizin.de/fhir/StructureDefinition/pharmacological-therapy" ]
      },
      "identifier": [ {
        "system": "https://mein.krankenhaus.de/fhir/NamingSystem/medicationstatementId",
        "value": "b415e703ab49bb382919a3218de03b13bd953c0687a0589281c1b3ca0495a3e4"
      } ],
      "status": "unknown",
      "medicationCodeableConcept": {
        "coding": [ {
          "system": "http://fhir.de/CodeSystem/dimdi/atc",
          "code": "J05AB06"
        }, {
          "system": "http://fhir.de/CodeSystem/dimdi/atc",
          "code": "S01AD09"
        }, {
          "system": "http://snomed.info/sct",
          "code": "78025001"
        } ]
      },
      "subject": {
        "reference": "Patient/7a78511c2ce57c68d66d5ec5ddf39fe2ca7a9445b2e4c719f4e189efbe89cddd"
      },
      "effectiveDateTime": "2020-03-09T14:58:00+00:00"
    },
    "request": {
      "method": "POST",
      "url": "MedicationStatement",
      "ifNoneExist": "identifier=https://mein.krankenhaus.de/fhir/NamingSystem/medicationstatementId|1fe3aa29d844c53ff5ad4fb769621e811dcebb626c1c95451a532bbb2d69ad40"
    }
  }, {
    "fullUrl": "MedicationStatement/abe74c1e5d36abc78df37648d3a7a5ce8f50a3a2461813f71c6b27572e477d3b",
    "resource": {
      "resourceType": "MedicationStatement",
      "meta": {
        "profile": [ "https://www.netzwerk-universitaetsmedizin.de/fhir/StructureDefinition/pharmacological-therapy" ]
      },
      "identifier": [ {
        "system": "https://mein.krankenhaus.de/fhir/NamingSystem/medicationstatementId",
        "value": "959bc3fc9fc2d566a4488f974f57a3895390242a20f275d776357a0933e38557"
      } ],
      "status": "not-taken",
      "medicationCodeableConcept": {
        "coding": [ {
          "system": "http://fhir.de/CodeSystem/dimdi/atc",
          "code": "J05AH02"
        }, {
          "system": "http://snomed.info/sct",
          "code": "386142008"
        } ]
      },
      "subject": {
        "reference": "Patient/7a78511c2ce57c68d66d5ec5ddf39fe2ca7a9445b2e4c719f4e189efbe89cddd"
      },
      "effectiveDateTime": "2020-03-09T14:58:00+00:00"
    },
    "request": {
      "method": "POST",
      "url": "MedicationStatement",
      "ifNoneExist": "identifier=https://mein.krankenhaus.de/fhir/NamingSystem/medicationstatementId|abe74c1e5d36abc78df37648d3a7a5ce8f50a3a2461813f71c6b27572e477d3b"
    }
  }, {
    "fullUrl": "MedicationStatement/6da8daafbd0688f206c277b7208225310f47b732db58446a17c88b1b2332f829",
    "resource": {
      "resourceType": "MedicationStatement",
      "meta": {
        "profile": [ "https://www.netzwerk-universitaetsmedizin.de/fhir/StructureDefinition/pharmacological-therapy" ]
      },
      "identifier": [ {
        "system": "https://mein.krankenhaus.de/fhir/NamingSystem/medicationstatementId",
        "value": "334abbf90b18d5d9ad9cbadb94c6ffa45960ca9315e96cc491023fb706ef3a4b"
      } ],
      "status": "active",
      "medicationCodeableConcept": {
        "coding": [ {
          "system": "http://fdasis.nlm.nih.gov",
          "code": "3QKI37EEHE"
        }, {
          "system": "http://snomed.info/sct",
          "code": "870518005"
        } ]
      },
      "subject": {
        "reference": "Patient/7a78511c2ce57c68d66d5ec5ddf39fe2ca7a9445b2e4c719f4e189efbe89cddd"
      },
      "effectiveDateTime": "2020-03-09T14:58:00+00:00"
    },
    "request": {
      "method": "POST",
      "url": "MedicationStatement",
      "ifNoneExist": "identifier=https://mein.krankenhaus.de/fhir/NamingSystem/medicationstatementId|6da8daafbd0688f206c277b7208225310f47b732db58446a17c88b1b2332f829"
    }
  }, {
    "fullUrl": "MedicationStatement/67f5fc508f5c4464d868bde46e83a6d3ceee94316bedbd86325d7768061b6f94",
    "resource": {
      "resourceType": "MedicationStatement",
      "meta": {
        "profile": [ "https://www.netzwerk-universitaetsmedizin.de/fhir/StructureDefinition/pharmacological-therapy" ]
      },
      "identifier": [ {
        "system": "https://mein.krankenhaus.de/fhir/NamingSystem/medicationstatementId",
        "value": "72bed623d32ff28123c683460b6415a21adf00dab3e778bdf8a5619040d02bf3"
      } ],
      "status": "unknown",
      "medicationCodeableConcept": {
        "coding": [ {
          "system": "http://fhir.de/CodeSystem/dimdi/atc",
          "code": "B02AB04"
        }, {
          "system": "https://www.netzwerk-universitaetsmedizin.de/fhir/CodeSystem/ecrf-parameter-codes",
          "code": "camostat"
        } ]
      },
      "subject": {
        "reference": "Patient/7a78511c2ce57c68d66d5ec5ddf39fe2ca7a9445b2e4c719f4e189efbe89cddd"
      },
      "effectiveDateTime": "2020-03-09T14:58:00+00:00"
    },
    "request": {
      "method": "POST",
      "url": "MedicationStatement",
      "ifNoneExist": "identifier=https://mein.krankenhaus.de/fhir/NamingSystem/medicationstatementId|67f5fc508f5c4464d868bde46e83a6d3ceee94316bedbd86325d7768061b6f94"
    }
  }, {
    "fullUrl": "MedicationStatement/bfba976ddf1e18baee4ba559e0963a49e1206dd97139d5b56c168cbd5703f392",
    "resource": {
      "resourceType": "MedicationStatement",
      "meta": {
        "profile": [ "https://www.netzwerk-universitaetsmedizin.de/fhir/StructureDefinition/pharmacological-therapy" ]
      },
      "identifier": [ {
        "system": "https://mein.krankenhaus.de/fhir/NamingSystem/medicationstatementId",
        "value": "d926ac125ee3becc36187a9feeac110a118fd6ad4332ea0a2f23dbc00946a329"
      } ],
      "status": "unknown",
      "medicationCodeableConcept": {
        "coding": [ {
          "system": "http://fhir.de/CodeSystem/dimdi/atc",
          "code": "J05AX27"
        }, {
          "system": "https://www.netzwerk-universitaetsmedizin.de/fhir/CodeSystem/ecrf-parameter-codes",
          "code": "favipiravir"
        } ]
      },
      "subject": {
        "reference": "Patient/7a78511c2ce57c68d66d5ec5ddf39fe2ca7a9445b2e4c719f4e189efbe89cddd"
      },
      "effectiveDateTime": "2020-03-09T14:58:00+00:00"
    },
    "request": {
      "method": "POST",
      "url": "MedicationStatement",
      "ifNoneExist": "identifier=https://mein.krankenhaus.de/fhir/NamingSystem/medicationstatementId|bfba976ddf1e18baee4ba559e0963a49e1206dd97139d5b56c168cbd5703f392"
    }
  }, {
    "fullUrl": "MedicationStatement/caebde17f40b2961c818e68020839023e9568f96435d1d05aab9a45642b77ce9",
    "resource": {
      "resourceType": "MedicationStatement",
      "meta": {
        "profile": [ "https://www.netzwerk-universitaetsmedizin.de/fhir/StructureDefinition/pharmacological-therapy" ]
      },
      "identifier": [ {
        "system": "https://mein.krankenhaus.de/fhir/NamingSystem/medicationstatementId",
        "value": "acd69f3d38086c9afcb20fb4b0639b4f1561e06e275e7881a752e375450c86a7"
      } ],
      "status": "active",
      "medicationCodeableConcept": {
        "coding": [ {
          "system": "urn:oid:2.16.840.1.113883.6.18.2.6",
          "code": "E9748"
        } ]
      },
      "subject": {
        "reference": "Patient/7a78511c2ce57c68d66d5ec5ddf39fe2ca7a9445b2e4c719f4e189efbe89cddd"
      },
      "effectiveDateTime": "2020-03-09T14:58:00+00:00"
    },
    "request": {
      "method": "POST",
      "url": "MedicationStatement",
      "ifNoneExist": "identifier=https://mein.krankenhaus.de/fhir/NamingSystem/medicationstatementId|caebde17f40b2961c818e68020839023e9568f96435d1d05aab9a45642b77ce9"
    }
  }, {
    "fullUrl": "MedicationStatement/da80de3023d3c9d4fe45a1bfdf2820ab8f914c5b1d050e811c935aa59d056cfd",
    "resource": {
      "resourceType": "MedicationStatement",
      "meta": {
        "profile": [ "https://www.netzwerk-universitaetsmedizin.de/fhir/StructureDefinition/pharmacological-therapy" ]
      },
      "identifier": [ {
        "system": "https://mein.krankenhaus.de/fhir/NamingSystem/medicationstatementId",
        "value": "e8b29e3082e0a17ea7ca66ce02f6bbebc8fc690768080f7203260e990b51f607"
      } ],
      "status": "unknown",
      "medicationCodeableConcept": {
        "coding": [ {
          "system": "https://www.netzwerk-universitaetsmedizin.de/fhir/CodeSystem/ecrf-parameter-codes",
          "code": "steroids-gt"
        } ]
      },
      "subject": {
        "reference": "Patient/7a78511c2ce57c68d66d5ec5ddf39fe2ca7a9445b2e4c719f4e189efbe89cddd"
      },
      "effectiveDateTime": "2020-03-09T14:58:00+00:00"
    },
    "request": {
      "method": "POST",
      "url": "MedicationStatement",
      "ifNoneExist": "identifier=https://mein.krankenhaus.de/fhir/NamingSystem/medicationstatementId|da80de3023d3c9d4fe45a1bfdf2820ab8f914c5b1d050e811c935aa59d056cfd"
    }
  }, {
    "fullUrl": "MedicationStatement/a9a23f9468a90264e8e7354d12fb573a8a330c4820f8fde1a6bb3ad86219215e",
    "resource": {
      "resourceType": "MedicationStatement",
      "meta": {
        "profile": [ "https://www.netzwerk-universitaetsmedizin.de/fhir/StructureDefinition/pharmacological-therapy" ]
      },
      "identifier": [ {
        "system": "https://mein.krankenhaus.de/fhir/NamingSystem/medicationstatementId",
        "value": "b03bebb12a742a4c9990d0ca03c8e646a4366b01c829b6c217452ece2c024ffd"
      } ],
      "status": "not-taken",
      "medicationCodeableConcept": {
        "coding": [ {
          "system": "https://www.netzwerk-universitaetsmedizin.de/fhir/CodeSystem/ecrf-parameter-codes",
          "code": "steroids-lt"
        } ]
      },
      "subject": {
        "reference": "Patient/7a78511c2ce57c68d66d5ec5ddf39fe2ca7a9445b2e4c719f4e189efbe89cddd"
      },
      "effectiveDateTime": "2020-03-09T14:58:00+00:00"
    },
    "request": {
      "method": "POST",
      "url": "MedicationStatement",
      "ifNoneExist": "identifier=https://mein.krankenhaus.de/fhir/NamingSystem/medicationstatementId|a9a23f9468a90264e8e7354d12fb573a8a330c4820f8fde1a6bb3ad86219215e"
    }
  }, {
    "fullUrl": "MedicationStatement/1c465e8607a59c1ec63ff72877be1fb31c8aa9fd750e80b698dff64b4f4013bb",
    "resource": {
      "resourceType": "MedicationStatement",
      "meta": {
        "profile": [ "https://www.netzwerk-universitaetsmedizin.de/fhir/StructureDefinition/pharmacological-therapy" ]
      },
      "identifier": [ {
        "system": "https://mein.krankenhaus.de/fhir/NamingSystem/medicationstatementId",
        "value": "56a28591a0fbc29d0fe85de9a5c97d8725525f16b4dae986a8c707efa8127393"
      } ],
      "status": "unknown",
      "medicationCodeableConcept": {
        "coding": [ {
          "system": "http://fhir.de/CodeSystem/dimdi/ops",
          "code": "6-005.m"
        }, {
          "system": "http://fhir.de/CodeSystem/dimdi/ops",
          "code": "6-005.n"
        }, {
          "system": "http://fhir.de/CodeSystem/dimdi/atc",
          "code": "L04AC07"
        }, {
          "system": "http://snomed.info/sct",
          "code": "444649004"
        } ]
      },
      "subject": {
        "reference": "Patient/7a78511c2ce57c68d66d5ec5ddf39fe2ca7a9445b2e4c719f4e189efbe89cddd"
      },
      "effectiveDateTime": "2020-03-09T14:58:00+00:00"
    },
    "request": {
      "method": "POST",
      "url": "MedicationStatement",
      "ifNoneExist": "identifier=https://mein.krankenhaus.de/fhir/NamingSystem/medicationstatementId|1c465e8607a59c1ec63ff72877be1fb31c8aa9fd750e80b698dff64b4f4013bb"
    }
  }, {
    "fullUrl": "MedicationStatement/94b8a82b4d059b5159ae91cd888650c8413f86eb309e22951492b8c6fb2ef954",
    "resource": {
      "resourceType": "MedicationStatement",
      "meta": {
        "profile": [ "https://www.netzwerk-universitaetsmedizin.de/fhir/StructureDefinition/pharmacological-therapy" ]
      },
      "identifier": [ {
        "system": "https://mein.krankenhaus.de/fhir/NamingSystem/medicationstatementId",
        "value": "a0f40b685676ee9dfc2f678ab488ed807fa232a6c3675b13926236d63df6d8bf"
      } ],
      "status": "active",
      "medicationCodeableConcept": {
        "coding": [ {
          "system": "http://fhir.de/CodeSystem/dimdi/ops",
          "code": "6-00a.g"
        }, {
          "system": "http://fhir.de/CodeSystem/dimdi/atc",
          "code": "L04AC14"
        }, {
          "system": "http://snomed.info/sct",
          "code": "763522001"
        } ]
      },
      "subject": {
        "reference": "Patient/7a78511c2ce57c68d66d5ec5ddf39fe2ca7a9445b2e4c719f4e189efbe89cddd"
      },
      "effectiveDateTime": "2020-03-09T14:58:00+00:00"
    },
    "request": {
      "method": "POST",
      "url": "MedicationStatement",
      "ifNoneExist": "identifier=https://mein.krankenhaus.de/fhir/NamingSystem/medicationstatementId|94b8a82b4d059b5159ae91cd888650c8413f86eb309e22951492b8c6fb2ef954"
    }
  }, {
    "fullUrl": "MedicationStatement/8c07c4ac67ac5e2d28f166a2ede346bbf9c91f3a93dcb9dc0d95bd79291fe6c3",
    "resource": {
      "resourceType": "MedicationStatement",
      "meta": {
        "profile": [ "https://www.netzwerk-universitaetsmedizin.de/fhir/StructureDefinition/pharmacological-therapy" ]
      },
      "identifier": [ {
        "system": "https://mein.krankenhaus.de/fhir/NamingSystem/medicationstatementId",
        "value": "d23d646775fecfa55ff6fa17d90b1cc043998fdf2af16a64fd3d85d9f6199848"
      } ],
      "status": "active",
      "medicationCodeableConcept": {
        "coding": [ {
          "system": "http://fhir.de/CodeSystem/dimdi/ops",
          "code": "6-005.8"
        } ]
      },
      "subject": {
        "reference": "Patient/7a78511c2ce57c68d66d5ec5ddf39fe2ca7a9445b2e4c719f4e189efbe89cddd"
      },
      "effectiveDateTime": "2020-03-09T14:58:00+00:00"
    },
    "request": {
      "method": "POST",
      "url": "MedicationStatement",
      "ifNoneExist": "identifier=https://mein.krankenhaus.de/fhir/NamingSystem/medicationstatementId|8c07c4ac67ac5e2d28f166a2ede346bbf9c91f3a93dcb9dc0d95bd79291fe6c3"
    }
  }, {
    "fullUrl": "MedicationStatement/033195899c815acd826238970e34de24243a32aeb30e4e12b15d5490ea51ad6b",
    "resource": {
      "resourceType": "MedicationStatement",
      "meta": {
        "profile": [ "https://www.netzwerk-universitaetsmedizin.de/fhir/StructureDefinition/pharmacological-therapy" ]
      },
      "identifier": [ {
        "system": "https://mein.krankenhaus.de/fhir/NamingSystem/medicationstatementId",
        "value": "bd86c35f6a2f3c879acdaab86162f609fb740474b73d25e28ed808488ab8fa58"
      } ],
      "status": "unknown",
      "medicationCodeableConcept": {
        "coding": [ {
          "system": "http://fhir.de/CodeSystem/dimdi/ops",
          "code": "6-001.d"
        }, {
          "system": "http://fhir.de/CodeSystem/dimdi/ops",
          "code": "6-002.b"
        }, {
          "system": "http://fhir.de/CodeSystem/dimdi/ops",
          "code": "6-005.7"
        }, {
          "system": "http://fhir.de/CodeSystem/dimdi/ops",
          "code": "6-005.2"
        }, {
          "system": "http://fhir.de/CodeSystem/dimdi/ops",
          "code": "6-001.e"
        }, {
          "system": "http://snomed.info/sct",
          "code": "416897008"
        } ]
      },
      "subject": {
        "reference": "Patient/7a78511c2ce57c68d66d5ec5ddf39fe2ca7a9445b2e4c719f4e189efbe89cddd"
      },
      "effectiveDateTime": "2020-03-09T14:58:00+00:00"
    },
    "request": {
      "method": "POST",
      "url": "MedicationStatement",
      "ifNoneExist": "identifier=https://mein.krankenhaus.de/fhir/NamingSystem/medicationstatementId|033195899c815acd826238970e34de24243a32aeb30e4e12b15d5490ea51ad6b"
    }
  }, {
    "fullUrl": "MedicationStatement/e85ea6cff79bc3f21c1ef3824c2b066923be44d87ec927548674044ce1a951ac",
    "resource": {
      "resourceType": "MedicationStatement",
      "meta": {
        "profile": [ "https://www.netzwerk-universitaetsmedizin.de/fhir/StructureDefinition/pharmacological-therapy" ]
      },
      "identifier": [ {
        "system": "https://mein.krankenhaus.de/fhir/NamingSystem/medicationstatementId",
        "value": "ee4e4c13adc20cb95a79fc12662810af4e64ca508ea0d84230bb36fab6527893"
      } ],
      "status": "unknown",
      "medicationCodeableConcept": {
        "coding": [ {
          "system": "http://fhir.de/CodeSystem/dimdi/ops",
          "code": "6-006.7"
        }, {
          "system": "http://fhir.de/CodeSystem/dimdi/atc",
          "code": "L04AC"
        }, {
          "system": "http://snomed.info/sct",
          "code": "430817009"
        } ]
      },
      "subject": {
        "reference": "Patient/7a78511c2ce57c68d66d5ec5ddf39fe2ca7a9445b2e4c719f4e189efbe89cddd"
      },
      "effectiveDateTime": "2020-03-09T14:58:00+00:00"
    },
    "request": {
      "method": "POST",
      "url": "MedicationStatement",
      "ifNoneExist": "identifier=https://mein.krankenhaus.de/fhir/NamingSystem/medicationstatementId|e85ea6cff79bc3f21c1ef3824c2b066923be44d87ec927548674044ce1a951ac"
    }
  }, {
    "fullUrl": "MedicationStatement/e2ba38d1daf64451e2f50febad084772c3886b58389811418034a14a3d8e74ff",
    "resource": {
      "resourceType": "MedicationStatement",
      "meta": {
        "profile": [ "https://www.netzwerk-universitaetsmedizin.de/fhir/StructureDefinition/pharmacological-therapy" ]
      },
      "identifier": [ {
        "system": "https://mein.krankenhaus.de/fhir/NamingSystem/medicationstatementId",
        "value": "94827702cd824d75b46a1f03a3754dd5802aa341bf27ca2a8879388f6f399af4"
      } ],
      "status": "unknown",
      "medicationCodeableConcept": {
        "coding": [ {
          "system": "http://fhir.de/CodeSystem/dimdi/ops",
          "code": "6-009.4"
        }, {
          "system": "http://snomed.info/sct",
          "code": "703779004"
        } ]
      },
      "subject": {
        "reference": "Patient/7a78511c2ce57c68d66d5ec5ddf39fe2ca7a9445b2e4c719f4e189efbe89cddd"
      },
      "effectiveDateTime": "2020-03-09T14:58:00+00:00"
    },
    "request": {
      "method": "POST",
      "url": "MedicationStatement",
      "ifNoneExist": "identifier=https://mein.krankenhaus.de/fhir/NamingSystem/medicationstatementId|e2ba38d1daf64451e2f50febad084772c3886b58389811418034a14a3d8e74ff"
    }
  }, {
    "fullUrl": "MedicationStatement/814dfffa025feadbe8e2be77aee23c8d5a3786c6b18712c9bdfaa8d1aeb43ea6",
    "resource": {
      "resourceType": "MedicationStatement",
      "meta": {
        "profile": [ "https://www.netzwerk-universitaetsmedizin.de/fhir/StructureDefinition/pharmacological-therapy" ]
      },
      "identifier": [ {
        "system": "https://mein.krankenhaus.de/fhir/NamingSystem/medicationstatementId",
        "value": "9036c37a44b5fbeb5ac71bb00736c3711088463b2d44e14299365af7640c4e19"
      } ],
      "status": "unknown",
      "medicationCodeableConcept": {
        "coding": [ {
          "system": "http://fhir.de/CodeSystem/dimdi/atc",
          "code": "M04AC01"
        }, {
          "system": "http://snomed.info/sct",
          "code": "73133000"
        } ]
      },
      "subject": {
        "reference": "Patient/7a78511c2ce57c68d66d5ec5ddf39fe2ca7a9445b2e4c719f4e189efbe89cddd"
      },
      "effectiveDateTime": "2020-03-09T14:58:00+00:00"
    },
    "request": {
      "method": "POST",
      "url": "MedicationStatement",
      "ifNoneExist": "identifier=https://mein.krankenhaus.de/fhir/NamingSystem/medicationstatementId|814dfffa025feadbe8e2be77aee23c8d5a3786c6b18712c9bdfaa8d1aeb43ea6"
    }
  }, {
    "fullUrl": "MedicationStatement/1d0f926b7bc9756f005ff4514e6af5135552c8b4394cdd9890ee49e65cb2fef6",
    "resource": {
      "resourceType": "MedicationStatement",
      "meta": {
        "profile": [ "https://www.netzwerk-universitaetsmedizin.de/fhir/StructureDefinition/pharmacological-therapy" ]
      },
      "identifier": [ {
        "system": "https://mein.krankenhaus.de/fhir/NamingSystem/medicationstatementId",
        "value": "0785d66de584b512aedf6f7b63961bdbd930599f6ee3928ff7bc61134ae2e247"
      } ],
      "status": "unknown",
      "medicationCodeableConcept": {
        "coding": [ {
          "system": "http://fhir.de/CodeSystem/dimdi/atc",
          "code": "S01AD05"
        }, {
          "system": "http://snomed.info/sct",
          "code": "768865007"
        } ]
      },
      "subject": {
        "reference": "Patient/7a78511c2ce57c68d66d5ec5ddf39fe2ca7a9445b2e4c719f4e189efbe89cddd"
      },
      "effectiveDateTime": "2020-03-09T14:58:00+00:00"
    },
    "request": {
      "method": "POST",
      "url": "MedicationStatement",
      "ifNoneExist": "identifier=https://mein.krankenhaus.de/fhir/NamingSystem/medicationstatementId|1d0f926b7bc9756f005ff4514e6af5135552c8b4394cdd9890ee49e65cb2fef6"
    }
  }, {
    "fullUrl": "MedicationStatement/ddd187d4c583a84c7edc6c16d10498b4d97418422e47c2be57bf4cd86d7b915d",
    "resource": {
      "resourceType": "MedicationStatement",
      "meta": {
        "profile": [ "https://www.netzwerk-universitaetsmedizin.de/fhir/StructureDefinition/pharmacological-therapy" ]
      },
      "identifier": [ {
        "system": "https://mein.krankenhaus.de/fhir/NamingSystem/medicationstatementId",
        "value": "2fdac0af3a0b95f658cb952b7d99f6026bbd5321ea621ccc4e6a05965eef6af0"
      } ],
      "status": "unknown",
      "medicationCodeableConcept": {
        "coding": [ {
          "system": "http://fhir.de/CodeSystem/dimdi/atc",
          "code": "A11CC06"
        }, {
          "system": "http://snomed.info/sct",
          "code": "88519001"
        } ]
      },
      "subject": {
        "reference": "Patient/7a78511c2ce57c68d66d5ec5ddf39fe2ca7a9445b2e4c719f4e189efbe89cddd"
      },
      "effectiveDateTime": "2020-03-09T14:58:00+00:00"
    },
    "request": {
      "method": "POST",
      "url": "MedicationStatement",
      "ifNoneExist": "identifier=https://mein.krankenhaus.de/fhir/NamingSystem/medicationstatementId|ddd187d4c583a84c7edc6c16d10498b4d97418422e47c2be57bf4cd86d7b915d"
    }
  }, {
    "fullUrl": "MedicationStatement/50643299fca1be7e8075ebef833791c43fdbc0d8fe997da8656f9db29b485e67",
    "resource": {
      "resourceType": "MedicationStatement",
      "meta": {
        "profile": [ "https://www.netzwerk-universitaetsmedizin.de/fhir/StructureDefinition/pharmacological-therapy" ]
      },
      "identifier": [ {
        "system": "https://mein.krankenhaus.de/fhir/NamingSystem/medicationstatementId",
        "value": "08668d86154b5eae81bfeb5a67ae88a77bdf46e97d84dcff09b8bd30f757f6a1"
      } ],
      "status": "not-taken",
      "medicationCodeableConcept": {
        "coding": [ {
          "system": "http://fhir.de/CodeSystem/dimdi/atc",
          "code": "A12CB"
        }, {
          "system": "http://snomed.info/sct",
          "code": "764877006"
        } ]
      },
      "subject": {
        "reference": "Patient/7a78511c2ce57c68d66d5ec5ddf39fe2ca7a9445b2e4c719f4e189efbe89cddd"
      },
      "effectiveDateTime": "2020-03-09T14:58:00+00:00"
    },
    "request": {
      "method": "POST",
      "url": "MedicationStatement",
      "ifNoneExist": "identifier=https://mein.krankenhaus.de/fhir/NamingSystem/medicationstatementId|50643299fca1be7e8075ebef833791c43fdbc0d8fe997da8656f9db29b485e67"
    }
  }, {
    "fullUrl": "MedicationStatement/917748abb0bec0a54f9bfbb137d635540cfb8d0c3c012d6ec531810e04a43fa7",
    "resource": {
      "resourceType": "MedicationStatement",
      "meta": {
        "profile": [ "https://www.netzwerk-universitaetsmedizin.de/fhir/StructureDefinition/pharmacological-therapy" ]
      },
      "identifier": [ {
        "system": "https://mein.krankenhaus.de/fhir/NamingSystem/medicationstatementId",
        "value": "7707d9a7ad2025e720a6996ddd3d084bef24ec1f44ff9a97ace984a4436d06f8"
      } ],
      "status": "active",
      "medicationCodeableConcept": {
        "coding": [ {
          "system": "http://snomed.info/sct",
          "code": "41549009"
        } ],
        "text": "ACE inhibitors"
      },
      "subject": {
        "reference": "Patient/7a78511c2ce57c68d66d5ec5ddf39fe2ca7a9445b2e4c719f4e189efbe89cddd"
      },
      "effectiveDateTime": "2020-03-09T14:58:00+00:00"
    },
    "request": {
      "method": "POST",
      "url": "MedicationStatement",
      "ifNoneExist": "identifier=https://mein.krankenhaus.de/fhir/NamingSystem/medicationstatementId|917748abb0bec0a54f9bfbb137d635540cfb8d0c3c012d6ec531810e04a43fa7"
    }
  }, {
    "fullUrl": "MedicationStatement/188990d16ff41847b067b160be8ea087ca3d65bb1670a540da39d1ba36fd80f3",
    "resource": {
      "resourceType": "MedicationStatement",
      "meta": {
        "profile": [ "https://www.netzwerk-universitaetsmedizin.de/fhir/StructureDefinition/pharmacological-therapy" ]
      },
      "identifier": [ {
        "system": "https://mein.krankenhaus.de/fhir/NamingSystem/medicationstatementId",
        "value": "f1f6acf89645f4adf5c786e53ef2f4291ed0efbcfa95e7ac9ab8405d7c1dc4b3"
      } ],
      "status": "active",
      "medicationCodeableConcept": {
        "coding": [ {
          "system": "http://snomed.info/sct",
          "code": "333710000"
        } ],
        "text": "immunoglobulins"
      },
      "subject": {
        "reference": "Patient/7a78511c2ce57c68d66d5ec5ddf39fe2ca7a9445b2e4c719f4e189efbe89cddd"
      },
      "effectiveDateTime": "2020-03-09T14:58:00+00:00"
    },
    "request": {
      "method": "POST",
      "url": "MedicationStatement",
      "ifNoneExist": "identifier=https://mein.krankenhaus.de/fhir/NamingSystem/medicationstatementId|188990d16ff41847b067b160be8ea087ca3d65bb1670a540da39d1ba36fd80f3"
    }
  }, {
    "fullUrl": "Observation/aab06f81a478e70fdae2021e54849b0276d04edb0ee091bd5449d5e08ba44c1f",
    "resource": {
      "resourceType": "Observation",
      "meta": {
        "profile": [ "https://www.netzwerk-universitaetsmedizin.de/fhir/StructureDefinition/carbon-dioxide-partial-pressure" ]
      },
      "identifier": [ {
        "type": {
          "coding": [ {
            "system": "http://terminology.hl7.org/CodeSystem/v2-0203",
            "code": "OBI",
            "display": "Observation Instance Identifier"
          } ]
        },
        "system": "https://mein.krankenhaus.de/fhir/NamingSystem/observationId",
        "value": "4c03193df2f293d9f120694b985d3c46c3172934d8aa8dc6544b8f3486b3c911",
        "assigner": {
          "reference": "Organization/3a4f3433bce81181bad2d8e0b8fafccf7dc800bc06f29be73dcb38b750a48f9a"
        }
      } ],
      "status": "final",
      "category": [ {
        "coding": [ {
          "system": "http://terminology.hl7.org/CodeSystem/observation-category",
          "code": "laboratory",
          "display": "Laboratory"
        }, {
          "system": "http://loinc.org",
          "code": "26436-6",
          "display": "Laboratory studies (set)"
        }, {
          "system": "http://loinc.org",
          "code": "18767-4",
          "display": "Blood gas studies (set)"
        } ]
      } ],
      "code": {
        "coding": [ {
          "system": "http://loinc.org",
          "code": "11557-6"
        } ],
        "text": "Carbon dioxide [Partial pressure] in blood"
      },
      "subject": {
        "reference": "Patient/7a78511c2ce57c68d66d5ec5ddf39fe2ca7a9445b2e4c719f4e189efbe89cddd"
      },
      "encounter": {
        "reference": "Encounter/d59baec720d1fb011b2384d80405ece9c51ad478ae28f6bd49b4aabc40a83f19"
      },
      "effectiveDateTime": "2020-10-10T11:14:00+00:00",
      "valueQuantity": {
        "value": 129,
        "unit": "mmHg",
        "system": "http://unitsofmeasure.org",
        "code": "mm[Hg]"
      }
    },
    "request": {
      "method": "POST",
      "url": "Observation",
      "ifNoneExist": "identifier=https://mein.krankenhaus.de/fhir/NamingSystem/observationId|aab06f81a478e70fdae2021e54849b0276d04edb0ee091bd5449d5e08ba44c1f"
    }
  }, {
    "fullUrl": "Observation/cd6f7622ca0fdc6f3d205e8acb7022cc1fcf05e23243083833c5ebd6afd26f9f",
    "resource": {
      "resourceType": "Observation",
      "meta": {
        "profile": [ "https://www.netzwerk-universitaetsmedizin.de/fhir/StructureDefinition/inhaled-oxygen-concentration" ]
      },
      "identifier": [ {
        "type": {
          "coding": [ {
            "system": "http://terminology.hl7.org/CodeSystem/v2-0203",
            "code": "OBI",
            "display": "Observation Instance Identifier"
          } ]
        },
        "system": "https://mein.krankenhaus.de/fhir/NamingSystem/observationId",
        "value": "36abc89bc154fffbc6b0e8d42720e7b7a76b66c42caeef19b19e659aea5e1ddf",
        "assigner": {
          "reference": "Organization/3a4f3433bce81181bad2d8e0b8fafccf7dc800bc06f29be73dcb38b750a48f9a"
        }
      } ],
      "status": "final",
      "category": [ {
        "coding": [ {
          "system": "http://terminology.hl7.org/CodeSystem/observation-category",
          "code": "laboratory",
          "display": "Laboratory"
        }, {
          "system": "http://loinc.org",
          "code": "26436-6",
          "display": "Laboratory studies (set)"
        }, {
          "system": "http://loinc.org",
          "code": "18767-4",
          "display": "Blood gas studies (set)"
        } ]
      } ],
      "code": {
        "coding": [ {
          "system": "http://loinc.org",
          "code": "3150-0"
        }, {
          "system": "http://snomed.info/sct",
          "code": "250774007"
        } ],
        "text": "Oxygen [Partial pressure] in blood"
      },
      "subject": {
        "reference": "Patient/7a78511c2ce57c68d66d5ec5ddf39fe2ca7a9445b2e4c719f4e189efbe89cddd"
      },
      "encounter": {
        "reference": "Encounter/d59baec720d1fb011b2384d80405ece9c51ad478ae28f6bd49b4aabc40a83f19"
      },
      "effectiveDateTime": "2020-10-10T11:14:00+00:00",
      "valueQuantity": {
        "value": 2.9178871806090023,
        "unit": "%",
        "system": "http://unitsofmeasure.org",
        "code": "%"
      }
    },
    "request": {
      "method": "POST",
      "url": "Observation",
      "ifNoneExist": "identifier=https://mein.krankenhaus.de/fhir/NamingSystem/observationId|cd6f7622ca0fdc6f3d205e8acb7022cc1fcf05e23243083833c5ebd6afd26f9f"
    }
  }, {
    "fullUrl": "Observation/f478e91f06b2a4a8ee88174ae644cb18818b0324df572119c6f537384c232533",
    "resource": {
      "resourceType": "Observation",
      "meta": {
        "profile": [ "https://www.netzwerk-universitaetsmedizin.de/fhir/StructureDefinition/pH" ]
      },
      "identifier": [ {
        "type": {
          "coding": [ {
            "system": "http://terminology.hl7.org/CodeSystem/v2-0203",
            "code": "OBI",
            "display": "Observation Instance Identifier"
          } ]
        },
        "system": "https://mein.krankenhaus.de/fhir/NamingSystem/observationId",
        "value": "b106f20f5cf68314dce4eeefb3d78fc5b1932f5c95879e4b6e6521a32fd1a090",
        "assigner": {
          "reference": "Organization/3a4f3433bce81181bad2d8e0b8fafccf7dc800bc06f29be73dcb38b750a48f9a"
        }
      } ],
      "status": "final",
      "category": [ {
        "coding": [ {
          "system": "http://terminology.hl7.org/CodeSystem/observation-category",
          "code": "laboratory",
          "display": "Laboratory"
        }, {
          "system": "http://loinc.org",
          "code": "26436-6",
          "display": "Laboratory studies (set)"
        }, {
          "system": "http://loinc.org",
          "code": "18767-4",
          "display": "Blood gas studies (set)"
        } ]
      } ],
      "code": {
        "coding": [ {
          "system": "http://loinc.org",
          "code": "11558-4"
        } ],
        "text": "pH of Blood"
      },
      "subject": {
        "reference": "Patient/7a78511c2ce57c68d66d5ec5ddf39fe2ca7a9445b2e4c719f4e189efbe89cddd"
      },
      "encounter": {
        "reference": "Encounter/d59baec720d1fb011b2384d80405ece9c51ad478ae28f6bd49b4aabc40a83f19"
      },
      "effectiveDateTime": "2020-10-10T11:14:00+00:00",
      "valueQuantity": {
        "value": 13.728105683708755,
        "unit": "pH",
        "system": "http://unitsofmeasure.org",
        "code": "[pH]"
      }
    },
    "request": {
      "method": "POST",
      "url": "Observation",
      "ifNoneExist": "identifier=https://mein.krankenhaus.de/fhir/NamingSystem/observationId|f478e91f06b2a4a8ee88174ae644cb18818b0324df572119c6f537384c232533"
    }
  }, {
    "fullUrl": "Observation/9cb39f4b9154a96ad849bc982f6a7640019deb2af5ba6e1ad5aaba30005f0e45",
    "resource": {
      "resourceType": "Observation",
      "meta": {
        "profile": [ "https://www.netzwerk-universitaetsmedizin.de/fhir/StructureDefinition/sofa-score" ]
      },
      "identifier": [ {
        "type": {
          "coding": [ {
            "system": "http://terminology.hl7.org/CodeSystem/v2-0203",
            "code": "OBI",
            "display": "Observation Instance Identifier"
          } ]
        },
        "system": "https://mein.krankenhaus.de/fhir/NamingSystem/observationId",
        "value": "11743c87bf6c872fbd60d625af68cb6cd015e364e8b2c11bdb58d75f288b2235",
        "assigner": {
          "reference": "Organization/3a4f3433bce81181bad2d8e0b8fafccf7dc800bc06f29be73dcb38b750a48f9a"
        }
      } ],
      "status": "final",
      "category": [ {
        "coding": [ {
          "system": "http://terminology.hl7.org/CodeSystem/observation-category",
          "code": "survey",
          "display": "Survey"
        } ]
      } ],
      "code": {
        "coding": [ {
          "system": "https://www.netzwerk-universitaetsmedizin.de/fhir/CodeSystem/ecrf-parameter-codes",
          "code": "06",
          "display": "SOFA-Score"
        } ],
        "text": "Sepsis-related organ failure assessment score"
      },
      "subject": {
        "reference": "Patient/7a78511c2ce57c68d66d5ec5ddf39fe2ca7a9445b2e4c719f4e189efbe89cddd"
      },
      "encounter": {
        "reference": "Encounter/d59baec720d1fb011b2384d80405ece9c51ad478ae28f6bd49b4aabc40a83f19"
      },
      "effectiveDateTime": "2020-10-10T11:14:00+00:00",
      "valueInteger": 13,
      "component": [ {
        "code": {
          "coding": [ {
            "system": "https://www.netzwerk-universitaetsmedizin.de/fhir/CodeSystem/sofa-score",
            "code": "resp",
            "display": "Respiratory system"
          } ],
          "text": "SOFA Respiratory system scoring category"
        },
        "valueCodeableConcept": {
          "coding": [ {
            "system": "https://www.netzwerk-universitaetsmedizin.de/fhir/CodeSystem/sofa-score",
            "code": "resp4",
            "display": "Respiratory system SOFA score 4"
          } ],
          "text": "PaO2/FiO2 [mmHg (kPa)] < 100 (13.3) and mechanically ventilated"
        }
      }, {
        "code": {
          "coding": [ {
            "system": "https://www.netzwerk-universitaetsmedizin.de/fhir/CodeSystem/sofa-score",
            "code": "ns",
            "display": "Nervous system"
          } ],
          "text": "SOFA Nervous system scoring category"
        },
        "valueCodeableConcept": {
          "coding": [ {
            "system": "https://www.netzwerk-universitaetsmedizin.de/fhir/CodeSystem/sofa-score",
            "code": "ns1",
            "display": "Nervous system SOFA score 1"
          } ],
          "text": "Glasgow Coma Scale (GCS) 13-14"
        }
      }, {
        "code": {
          "coding": [ {
            "system": "https://www.netzwerk-universitaetsmedizin.de/fhir/CodeSystem/sofa-score",
            "code": "kid",
            "display": "Kidneys"
          } ],
          "text": "SOFA Kidneys scoring category"
        },
        "valueCodeableConcept": {
          "coding": [ {
            "system": "https://www.netzwerk-universitaetsmedizin.de/fhir/CodeSystem/sofa-score",
            "code": "kid4",
            "display": "Kidneys SOFA score 4"
          } ],
          "text": "Creatinine (mg/dl) [umol/L] (or urine output) > 5.0 [> 440] (or < 200 ml/d)"
        }
      }, {
        "code": {
          "coding": [ {
            "system": "https://www.netzwerk-universitaetsmedizin.de/fhir/CodeSystem/sofa-score",
            "code": "cvs",
            "display": "Cardiovascular system"
          } ],
          "text": "SOFA Cardiovascular system scoring category"
        },
        "valueCodeableConcept": {
          "coding": [ {
            "system": "https://www.netzwerk-universitaetsmedizin.de/fhir/CodeSystem/sofa-score",
            "code": "cvs1",
            "display": "Cardiovascular system SOFA score 1"
          } ],
          "text": "Mean arterial pressure (definitions) < 70 mmHg"
        }
      }, {
        "code": {
          "coding": [ {
            "system": "https://www.netzwerk-universitaetsmedizin.de/fhir/CodeSystem/sofa-score",
            "code": "liv",
            "display": "Liver"
          } ],
          "text": "SOFA Liver scoring category"
        },
        "valueCodeableConcept": {
          "coding": [ {
            "system": "https://www.netzwerk-universitaetsmedizin.de/fhir/CodeSystem/sofa-score",
            "code": "liv3",
            "display": "Liver SOFA score 3"
          } ],
          "text": "Bilirubin (mg/dl) [umol/L] 6.0-11.9 [102-204]"
        }
      }, {
        "code": {
          "coding": [ {
            "system": "https://www.netzwerk-universitaetsmedizin.de/fhir/CodeSystem/sofa-score",
            "code": "coa",
            "display": "Coagulation"
          } ],
          "text": "SOFA Coagulation scoring category"
        },
        "valueCodeableConcept": {
          "coding": [ {
            "system": "https://www.netzwerk-universitaetsmedizin.de/fhir/CodeSystem/sofa-score",
            "code": "coa0",
            "display": "Coagulation SOFA score 0"
          } ],
          "text": "Platelets×10^3/ul ? 150"
        }
      } ]
    },
    "request": {
      "method": "POST",
      "url": "Observation",
      "ifNoneExist": "identifier=https://mein.krankenhaus.de/fhir/NamingSystem/observationId|9cb39f4b9154a96ad849bc982f6a7640019deb2af5ba6e1ad5aaba30005f0e45"
    }
  }, {
    "fullUrl": "Observation/c00a0364c96f9f5659b3bb6e37555707922f644dd323ec7c5c7a8a7e02a1f139",
    "resource": {
      "resourceType": "Observation",
      "meta": {
        "profile": [ "https://www.netzwerk-universitaetsmedizin.de/fhir/StructureDefinition/respiratory-rate" ]
      },
      "identifier": [ {
        "type": {
          "coding": [ {
            "system": "http://terminology.hl7.org/CodeSystem/v2-0203",
            "code": "OBI",
            "display": "Observation Instance Identifier"
          } ]
        },
        "system": "https://mein.krankenhaus.de/fhir/NamingSystem/observationId",
        "value": "7684ba2900f32ab122e9a1fe0104483b6099664dcef7194accffcbfd6ee912b8",
        "assigner": {
          "reference": "Organization/3a4f3433bce81181bad2d8e0b8fafccf7dc800bc06f29be73dcb38b750a48f9a"
        }
      } ],
      "status": "final",
      "category": [ {
        "coding": [ {
          "system": "http://terminology.hl7.org/CodeSystem/observation-category",
          "code": "vital-signs",
          "display": "Vital Signs"
        } ]
      } ],
      "code": {
        "coding": [ {
          "system": "http://loinc.org",
          "code": "9279-1"
        }, {
          "system": "http://snomed.info/sct",
          "code": "86290005"
        } ],
        "text": "Respiratory rate"
      },
      "subject": {
        "reference": "Patient/7a78511c2ce57c68d66d5ec5ddf39fe2ca7a9445b2e4c719f4e189efbe89cddd"
      },
      "encounter": {
        "reference": "Encounter/d59baec720d1fb011b2384d80405ece9c51ad478ae28f6bd49b4aabc40a83f19"
      },
      "effectiveDateTime": "2020-10-10T11:14:00+00:00",
      "valueQuantity": {
        "value": 115,
        "unit": "per minute",
        "system": "http://unitsofmeasure.org",
        "code": "/min"
      }
    },
    "request": {
      "method": "POST",
      "url": "Observation",
      "ifNoneExist": "identifier=https://mein.krankenhaus.de/fhir/NamingSystem/observationId|c00a0364c96f9f5659b3bb6e37555707922f644dd323ec7c5c7a8a7e02a1f139"
    }
  }, {
    "fullUrl": "Observation/d959e0b51c2f00df3347dbdaee6d402de2fde10cf2bee779bd7614665f8e082f",
    "resource": {
      "resourceType": "Observation",
      "meta": {
        "profile": [ "https://www.netzwerk-universitaetsmedizin.de/fhir/StructureDefinition/blood-pressure" ]
      },
      "identifier": [ {
        "type": {
          "coding": [ {
            "system": "http://terminology.hl7.org/CodeSystem/v2-0203",
            "code": "OBI",
            "display": "Observation Instance Identifier"
          } ]
        },
        "system": "https://mein.krankenhaus.de/fhir/NamingSystem/observationId",
        "value": "acea4133bb723e4ec0d63755c7be85cb84c253eacacbf6184b4101759904282f",
        "assigner": {
          "reference": "Organization/3a4f3433bce81181bad2d8e0b8fafccf7dc800bc06f29be73dcb38b750a48f9a"
        }
      } ],
      "status": "final",
      "category": [ {
        "coding": [ {
          "system": "http://terminology.hl7.org/CodeSystem/observation-category",
          "code": "vital-signs",
          "display": "Vital Signs"
        } ]
      } ],
      "code": {
        "coding": [ {
          "system": "http://loinc.org",
          "code": "85354-9",
          "display": "Blood pressure panel with all children optional"
        }, {
          "system": "http://snomed.info/sct",
          "code": "75367002",
          "display": "Blood pressure (observable entity)"
        } ],
        "text": "Blood pressure"
      },
      "subject": {
        "reference": "Patient/7a78511c2ce57c68d66d5ec5ddf39fe2ca7a9445b2e4c719f4e189efbe89cddd"
      },
      "encounter": {
        "reference": "Encounter/d59baec720d1fb011b2384d80405ece9c51ad478ae28f6bd49b4aabc40a83f19"
      },
      "effectiveDateTime": "2020-10-10T11:14:00+00:00",
      "component": [ {
        "code": {
          "coding": [ {
            "system": "http://loinc.org",
            "code": "8480-6"
          }, {
            "system": "http://snomed.info/sct",
            "code": "271649006"
          } ],
          "text": "Systolic blood pressure"
        },
        "valueQuantity": {
          "value": 62,
          "unit": "mmHg",
          "system": "http://unitsofmeasure.org",
          "code": "mm[Hg]"
        }
      }, {
        "code": {
          "coding": [ {
            "system": "http://loinc.org",
            "code": "8462-4"
          }, {
            "system": "http://snomed.info/sct",
            "code": "271650006"
          } ],
          "text": "Diastolic blood pressure"
        },
        "valueQuantity": {
          "value": 53,
          "unit": "mmHg",
          "system": "http://unitsofmeasure.org",
          "code": "mm[Hg]"
        }
      } ]
    },
    "request": {
      "method": "POST",
      "url": "Observation",
      "ifNoneExist": "identifier=https://mein.krankenhaus.de/fhir/NamingSystem/observationId|d959e0b51c2f00df3347dbdaee6d402de2fde10cf2bee779bd7614665f8e082f"
    }
  }, {
    "fullUrl": "Observation/65cc25059b8d0ac400677d0b7b5120a9b432db297fc4c9c030fc508ac0f94d1b",
    "resource": {
      "resourceType": "Observation",
      "meta": {
        "profile": [ "https://www.netzwerk-universitaetsmedizin.de/fhir/StructureDefinition/heart-rate" ]
      },
      "identifier": [ {
        "type": {
          "coding": [ {
            "system": "http://terminology.hl7.org/CodeSystem/v2-0203",
            "code": "OBI",
            "display": "Observation Instance Identifier"
          } ]
        },
        "system": "https://mein.krankenhaus.de/fhir/NamingSystem/observationId",
        "value": "33be182d3d19eb2782c551348516d79fc955422c2993037e3696424577e0f64c",
        "assigner": {
          "reference": "Organization/3a4f3433bce81181bad2d8e0b8fafccf7dc800bc06f29be73dcb38b750a48f9a"
        }
      } ],
      "status": "final",
      "category": [ {
        "coding": [ {
          "system": "http://terminology.hl7.org/CodeSystem/observation-category",
          "code": "vital-signs",
          "display": "Vital Signs"
        } ]
      } ],
      "code": {
        "coding": [ {
          "system": "http://loinc.org",
          "code": "8867-4"
        }, {
          "system": "http://snomed.info/sct",
          "code": "364075005"
        } ],
        "text": "Heart rate"
      },
      "subject": {
        "reference": "Patient/7a78511c2ce57c68d66d5ec5ddf39fe2ca7a9445b2e4c719f4e189efbe89cddd"
      },
      "encounter": {
        "reference": "Encounter/d59baec720d1fb011b2384d80405ece9c51ad478ae28f6bd49b4aabc40a83f19"
      },
      "effectiveDateTime": "2020-10-10T11:14:00+00:00",
      "valueQuantity": {
        "value": 78,
        "unit": "per minute",
        "system": "http://unitsofmeasure.org",
        "code": "/min"
      }
    },
    "request": {
      "method": "POST",
      "url": "Observation",
      "ifNoneExist": "identifier=https://mein.krankenhaus.de/fhir/NamingSystem/observationId|65cc25059b8d0ac400677d0b7b5120a9b432db297fc4c9c030fc508ac0f94d1b"
    }
  }, {
    "fullUrl": "Observation/10ae04f7c35684fee2b5d34709b87f33781b784f9fb3761424ef33cd775e7217",
    "resource": {
      "resourceType": "Observation",
      "meta": {
        "profile": [ "https://www.netzwerk-universitaetsmedizin.de/fhir/StructureDefinition/oxygen-saturation" ]
      },
      "identifier": [ {
        "type": {
          "coding": [ {
            "system": "http://terminology.hl7.org/CodeSystem/v2-0203",
            "code": "OBI",
            "display": "Observation Instance Identifier"
          } ]
        },
        "system": "https://mein.krankenhaus.de/fhir/NamingSystem/observationId",
        "value": "f7bfd2963d1864c7f492635815355eb1922445a62c4e5d62308034dbd6e8b2a0",
        "assigner": {
          "reference": "Organization/3a4f3433bce81181bad2d8e0b8fafccf7dc800bc06f29be73dcb38b750a48f9a"
        }
      } ],
      "status": "final",
      "category": [ {
        "coding": [ {
          "system": "http://terminology.hl7.org/CodeSystem/observation-category",
          "code": "vital-signs",
          "display": "Vital Signs"
        } ]
      } ],
      "code": {
        "coding": [ {
          "system": "http://loinc.org",
          "code": "2708-6"
        }, {
          "system": "http://loinc.org",
          "code": "59408-5"
        }, {
          "system": "http://loinc.org",
          "code": "20564-1"
        }, {
          "system": "http://snomed.info/sct",
          "code": "431314004"
        } ],
        "text": "Oxygen saturation in Arterial blood"
      },
      "subject": {
        "reference": "Patient/7a78511c2ce57c68d66d5ec5ddf39fe2ca7a9445b2e4c719f4e189efbe89cddd"
      },
      "encounter": {
        "reference": "Encounter/d59baec720d1fb011b2384d80405ece9c51ad478ae28f6bd49b4aabc40a83f19"
      },
      "effectiveDateTime": "2020-10-10T11:14:00+00:00",
      "valueQuantity": {
        "value": 21,
        "unit": "%",
        "system": "http://unitsofmeasure.org",
        "code": "%"
      }
    },
    "request": {
      "method": "POST",
      "url": "Observation",
      "ifNoneExist": "identifier=https://mein.krankenhaus.de/fhir/NamingSystem/observationId|10ae04f7c35684fee2b5d34709b87f33781b784f9fb3761424ef33cd775e7217"
    }
  }, {
    "fullUrl": "Observation/800476f698da5a1e386348065f40e5888afe5968ddf3a44dd84b6aa5884c69dd",
    "resource": {
      "resourceType": "Observation",
      "meta": {
        "profile": [ "https://www.netzwerk-universitaetsmedizin.de/fhir/StructureDefinition/study-inclusion-covid-19" ]
      },
      "identifier": [ {
        "type": {
          "coding": [ {
            "system": "http://terminology.hl7.org/CodeSystem/v2-0203",
            "code": "OBI",
            "display": "Observation Instance Identifier"
          } ]
        },
        "system": "https://mein.krankenhaus.de/fhir/NamingSystem/observationId",
        "value": "e3ee65d6ec0f1fcd75ed892c285708800b2eef1f9e3c1ab8a9841a5d0ad5dde9",
        "assigner": {
          "reference": "Organization/3a4f3433bce81181bad2d8e0b8fafccf7dc800bc06f29be73dcb38b750a48f9a"
        }
      } ],
      "status": "final",
      "category": [ {
        "coding": [ {
          "system": "http://terminology.hl7.org/CodeSystem/observation-category",
          "code": "survey",
          "display": "Survey"
        } ]
      } ],
      "code": {
        "coding": [ {
          "system": "https://www.netzwerk-universitaetsmedizin.de/fhir/CodeSystem/ecrf-parameter-codes",
          "code": "02",
          "display": "Study inclusion due to Covid-19"
        } ],
        "text": "Confirmed Covid-19 diagnosis as main reason for enrolment in the study"
      },
      "subject": {
        "reference": "Patient/7a78511c2ce57c68d66d5ec5ddf39fe2ca7a9445b2e4c719f4e189efbe89cddd"
      },
      "_effectiveDateTime": {
        "extension": [ {
          "url": "http://hl7.org/fhir/StructureDefinition/data-absent-reason",
          "valueCode": "unknown"
        } ]
      },
      "valueCodeableConcept": {
        "coding": [ {
          "system": "http://snomed.info/sct",
          "code": "373066001"
        } ]
      }
    },
    "request": {
      "method": "POST",
      "url": "Observation",
      "ifNoneExist": "identifier=https://mein.krankenhaus.de/fhir/NamingSystem/observationId|800476f698da5a1e386348065f40e5888afe5968ddf3a44dd84b6aa5884c69dd"
    }
  }, {
    "fullUrl": "Observation/80e45b77d78e1aea9e42d25a3b686b358d24decf75e2fe78e345c2dc56abbabf",
    "resource": {
      "resourceType": "Observation",
      "meta": {
        "profile": [ "https://www.netzwerk-universitaetsmedizin.de/fhir/StructureDefinition/interventional-clinical-trial-participation" ]
      },
      "identifier": [ {
        "type": {
          "coding": [ {
            "system": "http://terminology.hl7.org/CodeSystem/v2-0203",
            "code": "OBI",
            "display": "Observation Instance Identifier"
          } ]
        },
        "system": "https://mein.krankenhaus.de/fhir/NamingSystem/observationId",
        "value": "41c98f1741c93face61ddba35d47b03a09e3ee3385a58ad9f065a2766b0bfe09",
        "assigner": {
          "reference": "Organization/3a4f3433bce81181bad2d8e0b8fafccf7dc800bc06f29be73dcb38b750a48f9a"
        }
      } ],
      "status": "final",
      "category": [ {
        "coding": [ {
          "system": "http://terminology.hl7.org/CodeSystem/observation-category",
          "code": "survey",
          "display": "Survey"
        } ]
      } ],
      "code": {
        "coding": [ {
          "system": "https://www.netzwerk-universitaetsmedizin.de/fhir/CodeSystem/ecrf-parameter-codes",
          "code": "03",
          "display": "Participation in interventional clinical trials"
        } ],
        "text": "Has the patient participated in one or more interventional clinical trials?"
      },
      "subject": {
        "reference": "Patient/7a78511c2ce57c68d66d5ec5ddf39fe2ca7a9445b2e4c719f4e189efbe89cddd"
      },
      "_effectiveDateTime": {
        "extension": [ {
          "url": "http://hl7.org/fhir/StructureDefinition/data-absent-reason",
          "valueCode": "unknown"
        } ]
      },
      "valueCodeableConcept": {
        "coding": [ {
          "system": "http://snomed.info/sct",
          "code": "261665006"
        } ]
      }
    },
    "request": {
      "method": "POST",
      "url": "Observation",
      "ifNoneExist": "identifier=https://mein.krankenhaus.de/fhir/NamingSystem/observationId|80e45b77d78e1aea9e42d25a3b686b358d24decf75e2fe78e345c2dc56abbabf"
    }
  } ]
}