{
  "resourceType": "Bundle",
  "meta": {
    "profile": [ "https://www.netzwerk-universitaetsmedizin.de/fhir/StructureDefinition/gecco-bundle" ]
  },
  "type": "transaction",
  "entry": [ {
    "fullUrl": "Patient/2fcc931a70f11d9018f4c9551b38cb2a9d313e0d984d6bb22096873c1e8494cb",
    "resource": {
      "resourceType": "Patient",
      "meta": {
        "profile": [ "https://www.netzwerk-universitaetsmedizin.de/fhir/StructureDefinition/Patient" ]
      },
      "extension": [ {
        "url": "https://www.netzwerk-universitaetsmedizin.de/fhir/StructureDefinition/age",
        "extension": [ {
          "url": "dateTimeOfDocumentation",
          "_valueDateTime": {
            "extension": [ {
              "url": "http://hl7.org/fhir/StructureDefinition/data-absent-reason",
              "valueCode": "unknown"
            } ]
          }
        }, {
          "url": "age",
          "valueAge": {
            "value": 100,
            "unit": "years",
            "system": "http://unitsofmeasure.org",
            "code": "a"
          }
        } ]
      }, {
        "url": "https://www.netzwerk-universitaetsmedizin.de/fhir/StructureDefinition/ethnic-group",
        "valueCoding": {
          "system": "http://snomed.info/sct",
          "code": "14045001"
        }
      } ],
      "identifier": [ {
        "type": {
          "coding": [ {
            "system": "http://terminology.hl7.org/CodeSystem/v2-0203",
            "code": "MR"
          } ]
        },
        "system": "https://mein.krankenhaus.de/fhir/NamingSystem/patientId",
        "value": "synthetic_patient_254127109",
        "assigner": {
          "reference": "Organization/3a4f3433bce81181bad2d8e0b8fafccf7dc800bc06f29be73dcb38b750a48f9a"
        }
      } ],
      "birthDate": "1920-09-22"
    },
    "request": {
      "method": "POST",
      "url": "Patient",
      "ifNoneExist": "identifier=https://mein.krankenhaus.de/fhir/NamingSystem/patientId|2fcc931a70f11d9018f4c9551b38cb2a9d313e0d984d6bb22096873c1e8494cb"
    }
  }, {
    "fullUrl": "Organization/3a4f3433bce81181bad2d8e0b8fafccf7dc800bc06f29be73dcb38b750a48f9a",
    "resource": {
      "resourceType": "Organization",
      "name": "Mein Krankenhaus"
    },
    "request": {
      "method": "POST",
      "url": "Organization",
      "ifNoneExist": "identifier=null|3a4f3433bce81181bad2d8e0b8fafccf7dc800bc06f29be73dcb38b750a48f9a"
    }
  }, {
    "fullUrl": "Encounter/ddfebb2e3f246cfbf1c3a5ca5481eb35fb00278b178969f0f43965653d62e938",
    "resource": {
      "resourceType": "Encounter",
      "identifier": [ {
        "system": "https://mein.krankenhaus.de/fhir/NamingSystem/encounterId",
        "value": "e7bf4d3033cbe21ec3b6e88937807a0013164323db133ff720dc5a000aba0dc3",
        "assigner": {
          "reference": "Organization/3a4f3433bce81181bad2d8e0b8fafccf7dc800bc06f29be73dcb38b750a48f9a"
        }
      } ],
      "status": "unknown",
      "class": {
        "system": "http://terminology.hl7.org/CodeSystem/v3-ActCode",
        "code": "IMP",
        "display": "inpatient encounter"
      },
      "subject": {
        "reference": "Patient/2fcc931a70f11d9018f4c9551b38cb2a9d313e0d984d6bb22096873c1e8494cb"
      }
    },
    "request": {
      "method": "POST",
      "url": "Encounter",
      "ifNoneExist": "identifier=https://mein.krankenhaus.de/fhir/NamingSystem/encounterId|ddfebb2e3f246cfbf1c3a5ca5481eb35fb00278b178969f0f43965653d62e938"
    }
  }, {
    "fullUrl": "Condition/0e5c8f2642ca52896ce4a7c40d013eca8cdd30b6875f61a2cafc20523e2e205e",
    "resource": {
      "resourceType": "Condition",
      "meta": {
        "profile": [ "https://www.netzwerk-universitaetsmedizin.de/fhir/StructureDefinition/diagnosis-covid-19" ]
      },
      "identifier": [ {
        "system": "https://mein.krankenhaus.de/fhir/NamingSystem/conditionId",
        "value": "a5fb1c36ca8f4e57fa1123e8e84e4da4454ca1c669e0fe643414f9cae04e8cd3"
      } ],
      "clinicalStatus": {
        "coding": [ {
          "system": "http://terminology.hl7.org/CodeSystem/condition-clinical",
          "code": "active",
          "display": "Active"
        } ]
      },
      "verificationStatus": {
        "coding": [ {
          "system": "http://terminology.hl7.org/CodeSystem/condition-ver-status",
          "code": "confirmed",
          "display": "Confirmed"
        }, {
          "system": "http://snomed.info/sct",
          "code": "410605003",
          "display": "Confirmed present (qualifier value)"
        } ]
      },
      "category": [ {
        "coding": [ {
          "system": "http://snomed.info/sct",
          "code": "394807007",
          "display": "Infectious diseases (specialty) (qualifier value)"
        } ]
      } ],
      "code": {
        "coding": [ {
          "system": "http://snomed.info/sct",
          "code": "840539006",
          "display": "Disease caused by Severe acute respiratory syndrome coronavirus 2 (disorder)"
        } ]
      },
      "subject": {
        "reference": "Patient/2fcc931a70f11d9018f4c9551b38cb2a9d313e0d984d6bb22096873c1e8494cb"
      },
      "encounter": {
        "reference": "Encounter/ddfebb2e3f246cfbf1c3a5ca5481eb35fb00278b178969f0f43965653d62e938"
      },
      "_recordedDate": {
        "extension": [ {
          "url": "http://hl7.org/fhir/StructureDefinition/data-absent-reason",
          "valueCode": "unknown"
        } ]
      },
      "stage": [ {
        "summary": {
          "coding": [ {
            "system": "http://snomed.info/sct",
            "code": "261665006"
          } ]
        },
        "type": {
          "coding": [ {
            "system": "http://loinc.org",
            "code": "88859-4"
          } ]
        }
      } ]
    },
    "request": {
      "method": "POST",
      "url": "Condition",
      "ifNoneExist": "identifier=https://mein.krankenhaus.de/fhir/NamingSystem/conditionId|0e5c8f2642ca52896ce4a7c40d013eca8cdd30b6875f61a2cafc20523e2e205e"
    }
  }, {
    "fullUrl": "Condition/24411e44b5c5ebef930bd9acbe3451d2c25514deb5aaecc6a78af6c36f7eaf46",
    "resource": {
      "resourceType": "Condition",
      "meta": {
        "profile": [ "https://www.netzwerk-universitaetsmedizin.de/fhir/StructureDefinition/chronic-lung-diseases" ]
      },
      "modifierExtension": [ {
        "url": "https://www.netzwerk-universitaetsmedizin.de/fhir/StructureDefinition/uncertainty-of-presence",
        "valueCodeableConcept": {
          "coding": [ {
            "system": "http://snomed.info/sct",
            "code": "261665006",
            "display": "Unknown (qualifier value)"
          } ],
          "text": "Presence unknown."
        }
      } ],
      "identifier": [ {
        "system": "https://mein.krankenhaus.de/fhir/NamingSystem/conditionId",
        "value": "6d76d0d9d99f652b2396248fa2a1530ab5b3236dad0f650ba8b0d3e1ddc428fa"
      } ],
      "category": [ {
        "coding": [ {
          "system": "http://snomed.info/sct",
          "code": "418112009",
          "display": "Pulmonary medicine (qualifier value)"
        } ]
      } ],
      "code": {
        "coding": [ {
          "system": "http://fhir.de/CodeSystem/dimdi/icd-10-gm",
          "version": "2021",
          "code": "J45.9"
        }, {
          "system": "http://snomed.info/sct",
          "code": "195967001"
        } ]
      },
      "subject": {
        "reference": "Patient/2fcc931a70f11d9018f4c9551b38cb2a9d313e0d984d6bb22096873c1e8494cb"
      },
      "encounter": {
        "reference": "Encounter/ddfebb2e3f246cfbf1c3a5ca5481eb35fb00278b178969f0f43965653d62e938"
      },
      "_recordedDate": {
        "extension": [ {
          "url": "http://hl7.org/fhir/StructureDefinition/data-absent-reason",
          "valueCode": "unknown"
        } ]
      }
    },
    "request": {
      "method": "POST",
      "url": "Condition",
      "ifNoneExist": "identifier=https://mein.krankenhaus.de/fhir/NamingSystem/conditionId|24411e44b5c5ebef930bd9acbe3451d2c25514deb5aaecc6a78af6c36f7eaf46"
    }
  }, {
    "fullUrl": "Condition/562e939936fb453a979558ee6fa410fbfa4ade94aee8c54094e8b4cce4895162",
    "resource": {
      "resourceType": "Condition",
      "meta": {
        "profile": [ "https://www.netzwerk-universitaetsmedizin.de/fhir/StructureDefinition/chronic-lung-diseases" ]
      },
      "identifier": [ {
        "system": "https://mein.krankenhaus.de/fhir/NamingSystem/conditionId",
        "value": "d93236cb398376b2e4f4ed5b56c0cca0bd9398d8c85fede6a155504c81b572a3"
      } ],
      "verificationStatus": {
        "coding": [ {
          "system": "http://terminology.hl7.org/CodeSystem/condition-ver-status",
          "code": "refuted",
          "display": "Refuted"
        }, {
          "system": "http://snomed.info/sct",
          "code": "410594000",
          "display": "Definitely NOT present (qualifier value)"
        } ]
      },
      "category": [ {
        "coding": [ {
          "system": "http://snomed.info/sct",
          "code": "418112009",
          "display": "Pulmonary medicine (qualifier value)"
        } ]
      } ],
      "code": {
        "coding": [ {
          "system": "http://fhir.de/CodeSystem/dimdi/icd-10-gm",
          "version": "2021",
          "code": "J44.9"
        }, {
          "system": "http://snomed.info/sct",
          "code": "13645005"
        } ]
      },
      "subject": {
        "reference": "Patient/2fcc931a70f11d9018f4c9551b38cb2a9d313e0d984d6bb22096873c1e8494cb"
      },
      "encounter": {
        "reference": "Encounter/ddfebb2e3f246cfbf1c3a5ca5481eb35fb00278b178969f0f43965653d62e938"
      },
      "_recordedDate": {
        "extension": [ {
          "url": "http://hl7.org/fhir/StructureDefinition/data-absent-reason",
          "valueCode": "unknown"
        } ]
      }
    },
    "request": {
      "method": "POST",
      "url": "Condition",
      "ifNoneExist": "identifier=https://mein.krankenhaus.de/fhir/NamingSystem/conditionId|562e939936fb453a979558ee6fa410fbfa4ade94aee8c54094e8b4cce4895162"
    }
  }, {
    "fullUrl": "Condition/f67e54cd9dec49754408a226cdf19a3902333eaecd9cd9b9765209825b4bb833",
    "resource": {
      "resourceType": "Condition",
      "meta": {
        "profile": [ "https://www.netzwerk-universitaetsmedizin.de/fhir/StructureDefinition/chronic-lung-diseases" ]
      },
      "identifier": [ {
        "system": "https://mein.krankenhaus.de/fhir/NamingSystem/conditionId",
        "value": "4cc4b84416d37794c86d85e5d9042884c9d20fee97a047994ec96979e3c18ae4"
      } ],
      "clinicalStatus": {
        "coding": [ {
          "system": "http://terminology.hl7.org/CodeSystem/condition-clinical",
          "code": "active",
          "display": "Active"
        } ]
      },
      "verificationStatus": {
        "coding": [ {
          "system": "http://terminology.hl7.org/CodeSystem/condition-ver-status",
          "code": "confirmed",
          "display": "Confirmed"
        }, {
          "system": "http://snomed.info/sct",
          "code": "410605003",
          "display": "Confirmed present (qualifier value)"
        } ]
      },
      "category": [ {
        "coding": [ {
          "system": "http://snomed.info/sct",
          "code": "418112009",
          "display": "Pulmonary medicine (qualifier value)"
        } ]
      } ],
      "code": {
        "coding": [ {
          "system": "http://fhir.de/CodeSystem/dimdi/icd-10-gm",
          "version": "2021",
          "code": "J84.1"
        }, {
          "system": "http://snomed.info/sct",
          "code": "51615001"
        } ]
      },
      "subject": {
        "reference": "Patient/2fcc931a70f11d9018f4c9551b38cb2a9d313e0d984d6bb22096873c1e8494cb"
      },
      "encounter": {
        "reference": "Encounter/ddfebb2e3f246cfbf1c3a5ca5481eb35fb00278b178969f0f43965653d62e938"
      },
      "_recordedDate": {
        "extension": [ {
          "url": "http://hl7.org/fhir/StructureDefinition/data-absent-reason",
          "valueCode": "unknown"
        } ]
      }
    },
    "request": {
      "method": "POST",
      "url": "Condition",
      "ifNoneExist": "identifier=https://mein.krankenhaus.de/fhir/NamingSystem/conditionId|f67e54cd9dec49754408a226cdf19a3902333eaecd9cd9b9765209825b4bb833"
    }
  }, {
    "fullUrl": "Condition/4758cecf9df2bdc20c2e5b823a4bef0fdee08bd138de7f3457b8902b38f23f86",
    "resource": {
      "resourceType": "Condition",
      "meta": {
        "profile": [ "https://www.netzwerk-universitaetsmedizin.de/fhir/StructureDefinition/chronic-lung-diseases" ]
      },
      "modifierExtension": [ {
        "url": "https://www.netzwerk-universitaetsmedizin.de/fhir/StructureDefinition/uncertainty-of-presence",
        "valueCodeableConcept": {
          "coding": [ {
            "system": "http://snomed.info/sct",
            "code": "261665006",
            "display": "Unknown (qualifier value)"
          } ],
          "text": "Presence unknown."
        }
      } ],
      "identifier": [ {
        "system": "https://mein.krankenhaus.de/fhir/NamingSystem/conditionId",
        "value": "05a1db4cee3588b836bfd987c8a5564cf0326b7a3f74815c19c951abe6291553"
      } ],
      "category": [ {
        "coding": [ {
          "system": "http://snomed.info/sct",
          "code": "418112009",
          "display": "Pulmonary medicine (qualifier value)"
        } ]
      } ],
      "code": {
        "coding": [ {
          "system": "http://fhir.de/CodeSystem/dimdi/icd-10-gm",
          "version": "2021",
          "code": "I27.0"
        }, {
          "system": "http://snomed.info/sct",
          "code": "70995007"
        } ]
      },
      "subject": {
        "reference": "Patient/2fcc931a70f11d9018f4c9551b38cb2a9d313e0d984d6bb22096873c1e8494cb"
      },
      "encounter": {
        "reference": "Encounter/ddfebb2e3f246cfbf1c3a5ca5481eb35fb00278b178969f0f43965653d62e938"
      },
      "_recordedDate": {
        "extension": [ {
          "url": "http://hl7.org/fhir/StructureDefinition/data-absent-reason",
          "valueCode": "unknown"
        } ]
      }
    },
    "request": {
      "method": "POST",
      "url": "Condition",
      "ifNoneExist": "identifier=https://mein.krankenhaus.de/fhir/NamingSystem/conditionId|4758cecf9df2bdc20c2e5b823a4bef0fdee08bd138de7f3457b8902b38f23f86"
    }
  }, {
    "fullUrl": "Condition/92d3a003de1a57caf6a2e308b8b024ee6a9339c824fb1654fe0b33c288a6ee76",
    "resource": {
      "resourceType": "Condition",
      "meta": {
        "profile": [ "https://www.netzwerk-universitaetsmedizin.de/fhir/StructureDefinition/chronic-lung-diseases" ]
      },
      "modifierExtension": [ {
        "url": "https://www.netzwerk-universitaetsmedizin.de/fhir/StructureDefinition/uncertainty-of-presence",
        "valueCodeableConcept": {
          "coding": [ {
            "system": "http://snomed.info/sct",
            "code": "261665006",
            "display": "Unknown (qualifier value)"
          } ],
          "text": "Presence unknown."
        }
      } ],
      "identifier": [ {
        "system": "https://mein.krankenhaus.de/fhir/NamingSystem/conditionId",
        "value": "99ca9cb0b169035075c8ba6e888bb573128b3c2196face7f4f6dcbd2c0fea8e3"
      } ],
      "category": [ {
        "coding": [ {
          "system": "http://snomed.info/sct",
          "code": "418112009",
          "display": "Pulmonary medicine (qualifier value)"
        } ]
      } ],
      "code": {
        "coding": [ {
          "system": "http://fhir.de/CodeSystem/dimdi/icd-10-gm",
          "version": "2021",
          "code": "E66.29"
        }, {
          "system": "http://snomed.info/sct",
          "code": "190966007"
        } ]
      },
      "subject": {
        "reference": "Patient/2fcc931a70f11d9018f4c9551b38cb2a9d313e0d984d6bb22096873c1e8494cb"
      },
      "encounter": {
        "reference": "Encounter/ddfebb2e3f246cfbf1c3a5ca5481eb35fb00278b178969f0f43965653d62e938"
      },
      "_recordedDate": {
        "extension": [ {
          "url": "http://hl7.org/fhir/StructureDefinition/data-absent-reason",
          "valueCode": "unknown"
        } ]
      }
    },
    "request": {
      "method": "POST",
      "url": "Condition",
      "ifNoneExist": "identifier=https://mein.krankenhaus.de/fhir/NamingSystem/conditionId|92d3a003de1a57caf6a2e308b8b024ee6a9339c824fb1654fe0b33c288a6ee76"
    }
  }, {
    "fullUrl": "Condition/366eab6aaa2e82b342313e7cca64b7bc1e905992d802384f79e033ce811df51d",
    "resource": {
      "resourceType": "Condition",
      "meta": {
        "profile": [ "https://www.netzwerk-universitaetsmedizin.de/fhir/StructureDefinition/chronic-lung-diseases" ]
      },
      "identifier": [ {
        "system": "https://mein.krankenhaus.de/fhir/NamingSystem/conditionId",
        "value": "a855c4efd698dd77df56295345c3cce0f323c10b946ed02436c19919f3d61fbe"
      } ],
      "clinicalStatus": {
        "coding": [ {
          "system": "http://terminology.hl7.org/CodeSystem/condition-clinical",
          "code": "active",
          "display": "Active"
        } ]
      },
      "verificationStatus": {
        "coding": [ {
          "system": "http://terminology.hl7.org/CodeSystem/condition-ver-status",
          "code": "confirmed",
          "display": "Confirmed"
        }, {
          "system": "http://snomed.info/sct",
          "code": "410605003",
          "display": "Confirmed present (qualifier value)"
        } ]
      },
      "category": [ {
        "coding": [ {
          "system": "http://snomed.info/sct",
          "code": "418112009",
          "display": "Pulmonary medicine (qualifier value)"
        } ]
      } ],
      "code": {
        "coding": [ {
          "system": "http://fhir.de/CodeSystem/dimdi/icd-10-gm",
          "version": "2021",
          "code": "G47.3"
        }, {
          "system": "http://snomed.info/sct",
          "code": "73430006"
        } ]
      },
      "subject": {
        "reference": "Patient/2fcc931a70f11d9018f4c9551b38cb2a9d313e0d984d6bb22096873c1e8494cb"
      },
      "encounter": {
        "reference": "Encounter/ddfebb2e3f246cfbf1c3a5ca5481eb35fb00278b178969f0f43965653d62e938"
      },
      "_recordedDate": {
        "extension": [ {
          "url": "http://hl7.org/fhir/StructureDefinition/data-absent-reason",
          "valueCode": "unknown"
        } ]
      }
    },
    "request": {
      "method": "POST",
      "url": "Condition",
      "ifNoneExist": "identifier=https://mein.krankenhaus.de/fhir/NamingSystem/conditionId|366eab6aaa2e82b342313e7cca64b7bc1e905992d802384f79e033ce811df51d"
    }
  }, {
    "fullUrl": "Condition/5398a1be357b148deddb79cba5ce5ffe851da54e0e1c40b5ab863a0393d94d27",
    "resource": {
      "resourceType": "Condition",
      "meta": {
        "profile": [ "https://www.netzwerk-universitaetsmedizin.de/fhir/StructureDefinition/chronic-lung-diseases" ]
      },
      "identifier": [ {
        "system": "https://mein.krankenhaus.de/fhir/NamingSystem/conditionId",
        "value": "86126b8d104bea5ccdca9e70a78d1ab4429be06f84c26d8fe0a5137ecda2e89a"
      } ],
      "verificationStatus": {
        "coding": [ {
          "system": "http://terminology.hl7.org/CodeSystem/condition-ver-status",
          "code": "refuted",
          "display": "Refuted"
        }, {
          "system": "http://snomed.info/sct",
          "code": "410594000",
          "display": "Definitely NOT present (qualifier value)"
        } ]
      },
      "category": [ {
        "coding": [ {
          "system": "http://snomed.info/sct",
          "code": "418112009",
          "display": "Pulmonary medicine (qualifier value)"
        } ]
      } ],
      "code": {
        "coding": [ {
          "system": "http://fhir.de/CodeSystem/dimdi/icd-10-gm",
          "version": "2021",
          "code": "G47.31"
        }, {
          "system": "http://snomed.info/sct",
          "code": "78275009"
        } ]
      },
      "subject": {
        "reference": "Patient/2fcc931a70f11d9018f4c9551b38cb2a9d313e0d984d6bb22096873c1e8494cb"
      },
      "encounter": {
        "reference": "Encounter/ddfebb2e3f246cfbf1c3a5ca5481eb35fb00278b178969f0f43965653d62e938"
      },
      "_recordedDate": {
        "extension": [ {
          "url": "http://hl7.org/fhir/StructureDefinition/data-absent-reason",
          "valueCode": "unknown"
        } ]
      }
    },
    "request": {
      "method": "POST",
      "url": "Condition",
      "ifNoneExist": "identifier=https://mein.krankenhaus.de/fhir/NamingSystem/conditionId|5398a1be357b148deddb79cba5ce5ffe851da54e0e1c40b5ab863a0393d94d27"
    }
  }, {
    "fullUrl": "Condition/0fee3b5b55c7ddeea9df35d6d4cb9ffeabb7cdb51b9e4abb67a055f04905e53c",
    "resource": {
      "resourceType": "Condition",
      "meta": {
        "profile": [ "https://www.netzwerk-universitaetsmedizin.de/fhir/StructureDefinition/chronic-lung-diseases" ]
      },
      "identifier": [ {
        "system": "https://mein.krankenhaus.de/fhir/NamingSystem/conditionId",
        "value": "aac5b2cbf65dfe70cd7895d83e881cba349d00cf8c01e3d8cff66c2d4c43ac1e"
      } ],
      "verificationStatus": {
        "coding": [ {
          "system": "http://terminology.hl7.org/CodeSystem/condition-ver-status",
          "code": "refuted",
          "display": "Refuted"
        }, {
          "system": "http://snomed.info/sct",
          "code": "410594000",
          "display": "Definitely NOT present (qualifier value)"
        } ]
      },
      "category": [ {
        "coding": [ {
          "system": "http://snomed.info/sct",
          "code": "418112009",
          "display": "Pulmonary medicine (qualifier value)"
        } ]
      } ],
      "code": {
        "coding": [ {
          "system": "http://fhir.de/CodeSystem/dimdi/icd-10-gm",
          "version": "2021",
          "code": "E84.9"
        }, {
          "system": "http://snomed.info/sct",
          "code": "190905008"
        } ]
      },
      "subject": {
        "reference": "Patient/2fcc931a70f11d9018f4c9551b38cb2a9d313e0d984d6bb22096873c1e8494cb"
      },
      "encounter": {
        "reference": "Encounter/ddfebb2e3f246cfbf1c3a5ca5481eb35fb00278b178969f0f43965653d62e938"
      },
      "_recordedDate": {
        "extension": [ {
          "url": "http://hl7.org/fhir/StructureDefinition/data-absent-reason",
          "valueCode": "unknown"
        } ]
      }
    },
    "request": {
      "method": "POST",
      "url": "Condition",
      "ifNoneExist": "identifier=https://mein.krankenhaus.de/fhir/NamingSystem/conditionId|0fee3b5b55c7ddeea9df35d6d4cb9ffeabb7cdb51b9e4abb67a055f04905e53c"
    }
  }, {
    "fullUrl": "Condition/2ed3edb8c06eb98ae49c2620f2d64683718c33dc5f94d46b05ba9eddcf29ac07",
    "resource": {
      "resourceType": "Condition",
      "meta": {
        "profile": [ "https://www.netzwerk-universitaetsmedizin.de/fhir/StructureDefinition/chronic-lung-diseases" ]
      },
      "identifier": [ {
        "system": "https://mein.krankenhaus.de/fhir/NamingSystem/conditionId",
        "value": "ad9822a4f3139fdf6d29a8cced49d4a150a4300daf25f9b94710131a198a0b6c"
      } ],
      "verificationStatus": {
        "coding": [ {
          "system": "http://terminology.hl7.org/CodeSystem/condition-ver-status",
          "code": "refuted",
          "display": "Refuted"
        }, {
          "system": "http://snomed.info/sct",
          "code": "410594000",
          "display": "Definitely NOT present (qualifier value)"
        } ]
      },
      "category": [ {
        "coding": [ {
          "system": "http://snomed.info/sct",
          "code": "418112009",
          "display": "Pulmonary medicine (qualifier value)"
        } ]
      } ],
      "code": {
        "coding": [ {
          "system": "http://snomed.info/sct",
          "code": "106048009"
        } ]
      },
      "subject": {
        "reference": "Patient/2fcc931a70f11d9018f4c9551b38cb2a9d313e0d984d6bb22096873c1e8494cb"
      },
      "encounter": {
        "reference": "Encounter/ddfebb2e3f246cfbf1c3a5ca5481eb35fb00278b178969f0f43965653d62e938"
      },
      "_recordedDate": {
        "extension": [ {
          "url": "http://hl7.org/fhir/StructureDefinition/data-absent-reason",
          "valueCode": "unknown"
        } ]
      }
    },
    "request": {
      "method": "POST",
      "url": "Condition",
      "ifNoneExist": "identifier=https://mein.krankenhaus.de/fhir/NamingSystem/conditionId|2ed3edb8c06eb98ae49c2620f2d64683718c33dc5f94d46b05ba9eddcf29ac07"
    }
  }, {
    "fullUrl": "Condition/ae4b5b87072a41e33b50e5344fd6b6ea32606ff955f2947460c24dc70c8f3d6b",
    "resource": {
      "resourceType": "Condition",
      "meta": {
        "profile": [ "https://www.netzwerk-universitaetsmedizin.de/fhir/StructureDefinition/cardiovascular-diseases" ]
      },
      "identifier": [ {
        "system": "https://mein.krankenhaus.de/fhir/NamingSystem/conditionId",
        "value": "26d9143604ad1e6254664b5cd9c1e548fb3e5bb19b311904fe552989caecbc42"
      } ],
      "verificationStatus": {
        "coding": [ {
          "system": "http://terminology.hl7.org/CodeSystem/condition-ver-status",
          "code": "refuted",
          "display": "Refuted"
        }, {
          "system": "http://snomed.info/sct",
          "code": "410594000",
          "display": "Definitely NOT present (qualifier value)"
        } ]
      },
      "category": [ {
        "coding": [ {
          "system": "http://snomed.info/sct",
          "code": "722414000",
          "display": "Vascular medicine (qualifier value)"
        } ]
      } ],
      "code": {
        "coding": [ {
          "system": "http://fhir.de/CodeSystem/dimdi/icd-10-gm",
          "version": "2021",
          "code": "I10.90"
        }, {
          "system": "http://snomed.info/sct",
          "code": "38341003"
        } ]
      },
      "subject": {
        "reference": "Patient/2fcc931a70f11d9018f4c9551b38cb2a9d313e0d984d6bb22096873c1e8494cb"
      },
      "encounter": {
        "reference": "Encounter/ddfebb2e3f246cfbf1c3a5ca5481eb35fb00278b178969f0f43965653d62e938"
      },
      "_recordedDate": {
        "extension": [ {
          "url": "http://hl7.org/fhir/StructureDefinition/data-absent-reason",
          "valueCode": "unknown"
        } ]
      }
    },
    "request": {
      "method": "POST",
      "url": "Condition",
      "ifNoneExist": "identifier=https://mein.krankenhaus.de/fhir/NamingSystem/conditionId|ae4b5b87072a41e33b50e5344fd6b6ea32606ff955f2947460c24dc70c8f3d6b"
    }
  }, {
    "fullUrl": "Condition/95fc2efd0d49f2ecc49d7a75da7e79b12a4dd94df44e5e538f1100de5083acd9",
    "resource": {
      "resourceType": "Condition",
      "meta": {
        "profile": [ "https://www.netzwerk-universitaetsmedizin.de/fhir/StructureDefinition/cardiovascular-diseases" ]
      },
      "identifier": [ {
        "system": "https://mein.krankenhaus.de/fhir/NamingSystem/conditionId",
        "value": "17b7017a34fce01c7f89c529af74ca90b439893e18df92d11c4166d0cbf6c030"
      } ],
      "clinicalStatus": {
        "coding": [ {
          "system": "http://terminology.hl7.org/CodeSystem/condition-clinical",
          "code": "active",
          "display": "Active"
        } ]
      },
      "verificationStatus": {
        "coding": [ {
          "system": "http://terminology.hl7.org/CodeSystem/condition-ver-status",
          "code": "confirmed",
          "display": "Confirmed"
        }, {
          "system": "http://snomed.info/sct",
          "code": "410605003",
          "display": "Confirmed present (qualifier value)"
        } ]
      },
      "category": [ {
        "coding": [ {
          "system": "http://snomed.info/sct",
          "code": "722414000",
          "display": "Vascular medicine (qualifier value)"
        } ]
      } ],
      "code": {
        "coding": [ {
          "system": "http://fhir.de/CodeSystem/dimdi/icd-10-gm",
          "version": "2021",
          "code": "I25.29"
        }, {
          "system": "http://snomed.info/sct",
          "code": "417662000:246090004=22298006"
        } ]
      },
      "subject": {
        "reference": "Patient/2fcc931a70f11d9018f4c9551b38cb2a9d313e0d984d6bb22096873c1e8494cb"
      },
      "encounter": {
        "reference": "Encounter/ddfebb2e3f246cfbf1c3a5ca5481eb35fb00278b178969f0f43965653d62e938"
      },
      "_recordedDate": {
        "extension": [ {
          "url": "http://hl7.org/fhir/StructureDefinition/data-absent-reason",
          "valueCode": "unknown"
        } ]
      }
    },
    "request": {
      "method": "POST",
      "url": "Condition",
      "ifNoneExist": "identifier=https://mein.krankenhaus.de/fhir/NamingSystem/conditionId|95fc2efd0d49f2ecc49d7a75da7e79b12a4dd94df44e5e538f1100de5083acd9"
    }
  }, {
    "fullUrl": "Condition/390fdab570057e772c7f54ec55c8bdf2a8cc2586337235acbe3f4b0f368bea64",
    "resource": {
      "resourceType": "Condition",
      "meta": {
        "profile": [ "https://www.netzwerk-universitaetsmedizin.de/fhir/StructureDefinition/cardiovascular-diseases" ]
      },
      "identifier": [ {
        "system": "https://mein.krankenhaus.de/fhir/NamingSystem/conditionId",
        "value": "f053d5633ba99a0afd5f83a092ecb482852969d46d8536f04ab69796cb686adb"
      } ],
      "verificationStatus": {
        "coding": [ {
          "system": "http://terminology.hl7.org/CodeSystem/condition-ver-status",
          "code": "refuted",
          "display": "Refuted"
        }, {
          "system": "http://snomed.info/sct",
          "code": "410594000",
          "display": "Definitely NOT present (qualifier value)"
        } ]
      },
      "category": [ {
        "coding": [ {
          "system": "http://snomed.info/sct",
          "code": "722414000",
          "display": "Vascular medicine (qualifier value)"
        } ]
      } ],
      "code": {
        "coding": [ {
          "system": "http://fhir.de/CodeSystem/dimdi/icd-10-gm",
          "version": "2021",
          "code": "I49.9"
        }, {
          "system": "http://snomed.info/sct",
          "code": "698247007"
        } ]
      },
      "subject": {
        "reference": "Patient/2fcc931a70f11d9018f4c9551b38cb2a9d313e0d984d6bb22096873c1e8494cb"
      },
      "encounter": {
        "reference": "Encounter/ddfebb2e3f246cfbf1c3a5ca5481eb35fb00278b178969f0f43965653d62e938"
      },
      "_recordedDate": {
        "extension": [ {
          "url": "http://hl7.org/fhir/StructureDefinition/data-absent-reason",
          "valueCode": "unknown"
        } ]
      }
    },
    "request": {
      "method": "POST",
      "url": "Condition",
      "ifNoneExist": "identifier=https://mein.krankenhaus.de/fhir/NamingSystem/conditionId|390fdab570057e772c7f54ec55c8bdf2a8cc2586337235acbe3f4b0f368bea64"
    }
  }, {
    "fullUrl": "Condition/700f4178a0ead59de7cac337cab51839f8422fdafd4617df4c72939bbcb094b0",
    "resource": {
      "resourceType": "Condition",
      "meta": {
        "profile": [ "https://www.netzwerk-universitaetsmedizin.de/fhir/StructureDefinition/cardiovascular-diseases" ]
      },
      "modifierExtension": [ {
        "url": "https://www.netzwerk-universitaetsmedizin.de/fhir/StructureDefinition/uncertainty-of-presence",
        "valueCodeableConcept": {
          "coding": [ {
            "system": "http://snomed.info/sct",
            "code": "261665006",
            "display": "Unknown (qualifier value)"
          } ],
          "text": "Presence unknown."
        }
      } ],
      "identifier": [ {
        "system": "https://mein.krankenhaus.de/fhir/NamingSystem/conditionId",
        "value": "e2b14090456eb3e7bca34b19a510d7598490273c5c652c4f7a1cd619e209187b"
      } ],
      "category": [ {
        "coding": [ {
          "system": "http://snomed.info/sct",
          "code": "722414000",
          "display": "Vascular medicine (qualifier value)"
        } ]
      } ],
      "code": {
        "coding": [ {
          "system": "http://fhir.de/CodeSystem/dimdi/icd-10-gm",
          "version": "2021",
          "code": "I50.9"
        }, {
          "system": "http://snomed.info/sct",
          "code": "84114007"
        } ]
      },
      "subject": {
        "reference": "Patient/2fcc931a70f11d9018f4c9551b38cb2a9d313e0d984d6bb22096873c1e8494cb"
      },
      "encounter": {
        "reference": "Encounter/ddfebb2e3f246cfbf1c3a5ca5481eb35fb00278b178969f0f43965653d62e938"
      },
      "_recordedDate": {
        "extension": [ {
          "url": "http://hl7.org/fhir/StructureDefinition/data-absent-reason",
          "valueCode": "unknown"
        } ]
      }
    },
    "request": {
      "method": "POST",
      "url": "Condition",
      "ifNoneExist": "identifier=https://mein.krankenhaus.de/fhir/NamingSystem/conditionId|700f4178a0ead59de7cac337cab51839f8422fdafd4617df4c72939bbcb094b0"
    }
  }, {
    "fullUrl": "Condition/b92ab942701b9c5af9e897d3aeabea5d84a9bc618d0abe18b46f9d97a62080df",
    "resource": {
      "resourceType": "Condition",
      "meta": {
        "profile": [ "https://www.netzwerk-universitaetsmedizin.de/fhir/StructureDefinition/cardiovascular-diseases" ]
      },
      "identifier": [ {
        "system": "https://mein.krankenhaus.de/fhir/NamingSystem/conditionId",
        "value": "ed4fd873be1e3c306a38d267e6dbc232e8a70cefb0cefdb3c019985d9cf73a9a"
      } ],
      "verificationStatus": {
        "coding": [ {
          "system": "http://terminology.hl7.org/CodeSystem/condition-ver-status",
          "code": "refuted",
          "display": "Refuted"
        }, {
          "system": "http://snomed.info/sct",
          "code": "410594000",
          "display": "Definitely NOT present (qualifier value)"
        } ]
      },
      "category": [ {
        "coding": [ {
          "system": "http://snomed.info/sct",
          "code": "722414000",
          "display": "Vascular medicine (qualifier value)"
        } ]
      } ],
      "code": {
        "coding": [ {
          "system": "http://fhir.de/CodeSystem/dimdi/icd-10-gm",
          "version": "2021",
          "code": "I73.9"
        }, {
          "system": "http://snomed.info/sct",
          "code": "399957001"
        } ]
      },
      "subject": {
        "reference": "Patient/2fcc931a70f11d9018f4c9551b38cb2a9d313e0d984d6bb22096873c1e8494cb"
      },
      "encounter": {
        "reference": "Encounter/ddfebb2e3f246cfbf1c3a5ca5481eb35fb00278b178969f0f43965653d62e938"
      },
      "_recordedDate": {
        "extension": [ {
          "url": "http://hl7.org/fhir/StructureDefinition/data-absent-reason",
          "valueCode": "unknown"
        } ]
      }
    },
    "request": {
      "method": "POST",
      "url": "Condition",
      "ifNoneExist": "identifier=https://mein.krankenhaus.de/fhir/NamingSystem/conditionId|b92ab942701b9c5af9e897d3aeabea5d84a9bc618d0abe18b46f9d97a62080df"
    }
  }, {
    "fullUrl": "Condition/a1888201dca926763ed40dc656e861df3f96ac5bda4b64e6c34f6254eae756c9",
    "resource": {
      "resourceType": "Condition",
      "meta": {
        "profile": [ "https://www.netzwerk-universitaetsmedizin.de/fhir/StructureDefinition/cardiovascular-diseases" ]
      },
      "modifierExtension": [ {
        "url": "https://www.netzwerk-universitaetsmedizin.de/fhir/StructureDefinition/uncertainty-of-presence",
        "valueCodeableConcept": {
          "coding": [ {
            "system": "http://snomed.info/sct",
            "code": "261665006",
            "display": "Unknown (qualifier value)"
          } ],
          "text": "Presence unknown."
        }
      } ],
      "identifier": [ {
        "system": "https://mein.krankenhaus.de/fhir/NamingSystem/conditionId",
        "value": "bdd0f8fdb5f6ffe0c365654f9b3be5cfcb007de60bf2c2e3fd1280dc913dc89b"
      } ],
      "category": [ {
        "coding": [ {
          "system": "http://snomed.info/sct",
          "code": "722414000",
          "display": "Vascular medicine (qualifier value)"
        } ]
      } ],
      "code": {
        "coding": [ {
          "system": "http://fhir.de/CodeSystem/dimdi/icd-10-gm",
          "version": "2021",
          "code": "Z95.5"
        }, {
          "system": "http://snomed.info/sct",
          "code": "416940007:363589002=81266008"
        } ]
      },
      "subject": {
        "reference": "Patient/2fcc931a70f11d9018f4c9551b38cb2a9d313e0d984d6bb22096873c1e8494cb"
      },
      "encounter": {
        "reference": "Encounter/ddfebb2e3f246cfbf1c3a5ca5481eb35fb00278b178969f0f43965653d62e938"
      },
      "_recordedDate": {
        "extension": [ {
          "url": "http://hl7.org/fhir/StructureDefinition/data-absent-reason",
          "valueCode": "unknown"
        } ]
      }
    },
    "request": {
      "method": "POST",
      "url": "Condition",
      "ifNoneExist": "identifier=https://mein.krankenhaus.de/fhir/NamingSystem/conditionId|a1888201dca926763ed40dc656e861df3f96ac5bda4b64e6c34f6254eae756c9"
    }
  }, {
    "fullUrl": "Condition/780cced698880c5d1ff56ad2d2fc8478063435d19e1034a1df0abbefac5f5a1b",
    "resource": {
      "resourceType": "Condition",
      "meta": {
        "profile": [ "https://www.netzwerk-universitaetsmedizin.de/fhir/StructureDefinition/cardiovascular-diseases" ]
      },
      "identifier": [ {
        "system": "https://mein.krankenhaus.de/fhir/NamingSystem/conditionId",
        "value": "2fd3626076d4b984f8e85f1f4d62aec9f354e556440c6332b0a3188f8079ac74"
      } ],
      "clinicalStatus": {
        "coding": [ {
          "system": "http://terminology.hl7.org/CodeSystem/condition-clinical",
          "code": "active",
          "display": "Active"
        } ]
      },
      "verificationStatus": {
        "coding": [ {
          "system": "http://terminology.hl7.org/CodeSystem/condition-ver-status",
          "code": "confirmed",
          "display": "Confirmed"
        }, {
          "system": "http://snomed.info/sct",
          "code": "410605003",
          "display": "Confirmed present (qualifier value)"
        } ]
      },
      "category": [ {
        "coding": [ {
          "system": "http://snomed.info/sct",
          "code": "722414000",
          "display": "Vascular medicine (qualifier value)"
        } ]
      } ],
      "code": {
        "coding": [ {
          "system": "http://fhir.de/CodeSystem/dimdi/icd-10-gm",
          "version": "2021",
          "code": "I25.1"
        }, {
          "system": "http://snomed.info/sct",
          "code": "53741008"
        } ]
      },
      "subject": {
        "reference": "Patient/2fcc931a70f11d9018f4c9551b38cb2a9d313e0d984d6bb22096873c1e8494cb"
      },
      "encounter": {
        "reference": "Encounter/ddfebb2e3f246cfbf1c3a5ca5481eb35fb00278b178969f0f43965653d62e938"
      },
      "_recordedDate": {
        "extension": [ {
          "url": "http://hl7.org/fhir/StructureDefinition/data-absent-reason",
          "valueCode": "unknown"
        } ]
      }
    },
    "request": {
      "method": "POST",
      "url": "Condition",
      "ifNoneExist": "identifier=https://mein.krankenhaus.de/fhir/NamingSystem/conditionId|780cced698880c5d1ff56ad2d2fc8478063435d19e1034a1df0abbefac5f5a1b"
    }
  }, {
    "fullUrl": "Condition/b6cdb88b89b37d64113d453f668eb1ff26c3caca5b8634a5a5edd047aaede58c",
    "resource": {
      "resourceType": "Condition",
      "meta": {
        "profile": [ "https://www.netzwerk-universitaetsmedizin.de/fhir/StructureDefinition/cardiovascular-diseases" ]
      },
      "identifier": [ {
        "system": "https://mein.krankenhaus.de/fhir/NamingSystem/conditionId",
        "value": "bc87321e7d7ab9d1336328091e1a6da9d33eeacd58f9a033968374dd97c16eec"
      } ],
      "verificationStatus": {
        "coding": [ {
          "system": "http://terminology.hl7.org/CodeSystem/condition-ver-status",
          "code": "refuted",
          "display": "Refuted"
        }, {
          "system": "http://snomed.info/sct",
          "code": "410594000",
          "display": "Definitely NOT present (qualifier value)"
        } ]
      },
      "category": [ {
        "coding": [ {
          "system": "http://snomed.info/sct",
          "code": "722414000",
          "display": "Vascular medicine (qualifier value)"
        } ]
      } ],
      "code": {
        "coding": [ {
          "system": "http://fhir.de/CodeSystem/dimdi/icd-10-gm",
          "version": "2021",
          "code": "I65.2"
        }, {
          "system": "http://snomed.info/sct",
          "code": "64586002"
        } ]
      },
      "subject": {
        "reference": "Patient/2fcc931a70f11d9018f4c9551b38cb2a9d313e0d984d6bb22096873c1e8494cb"
      },
      "encounter": {
        "reference": "Encounter/ddfebb2e3f246cfbf1c3a5ca5481eb35fb00278b178969f0f43965653d62e938"
      },
      "_recordedDate": {
        "extension": [ {
          "url": "http://hl7.org/fhir/StructureDefinition/data-absent-reason",
          "valueCode": "unknown"
        } ]
      }
    },
    "request": {
      "method": "POST",
      "url": "Condition",
      "ifNoneExist": "identifier=https://mein.krankenhaus.de/fhir/NamingSystem/conditionId|b6cdb88b89b37d64113d453f668eb1ff26c3caca5b8634a5a5edd047aaede58c"
    }
  }, {
    "fullUrl": "Condition/94b2177109cd37f9bd380f6861b5b996a70e1db69de3e9797f4cb5977c633231",
    "resource": {
      "resourceType": "Condition",
      "meta": {
        "profile": [ "https://www.netzwerk-universitaetsmedizin.de/fhir/StructureDefinition/cardiovascular-diseases" ]
      },
      "identifier": [ {
        "system": "https://mein.krankenhaus.de/fhir/NamingSystem/conditionId",
        "value": "d976099f29306bf1bc8841431cfecf6fce76be464e6c810da4d47ef9e7fb0df1"
      } ],
      "verificationStatus": {
        "coding": [ {
          "system": "http://terminology.hl7.org/CodeSystem/condition-ver-status",
          "code": "refuted",
          "display": "Refuted"
        }, {
          "system": "http://snomed.info/sct",
          "code": "410594000",
          "display": "Definitely NOT present (qualifier value)"
        } ]
      },
      "category": [ {
        "coding": [ {
          "system": "http://snomed.info/sct",
          "code": "722414000",
          "display": "Vascular medicine (qualifier value)"
        } ]
      } ],
      "code": {
        "coding": [ {
          "system": "http://fhir.de/CodeSystem/dimdi/icd-10-gm",
          "version": "2021",
          "code": "I51.6"
        }, {
          "system": "http://snomed.info/sct",
          "code": "49601007"
        } ]
      },
      "subject": {
        "reference": "Patient/2fcc931a70f11d9018f4c9551b38cb2a9d313e0d984d6bb22096873c1e8494cb"
      },
      "encounter": {
        "reference": "Encounter/ddfebb2e3f246cfbf1c3a5ca5481eb35fb00278b178969f0f43965653d62e938"
      },
      "_recordedDate": {
        "extension": [ {
          "url": "http://hl7.org/fhir/StructureDefinition/data-absent-reason",
          "valueCode": "unknown"
        } ]
      }
    },
    "request": {
      "method": "POST",
      "url": "Condition",
      "ifNoneExist": "identifier=https://mein.krankenhaus.de/fhir/NamingSystem/conditionId|94b2177109cd37f9bd380f6861b5b996a70e1db69de3e9797f4cb5977c633231"
    }
  }, {
    "fullUrl": "Condition/a6db8db88d6079684ff882a09c461d9a0de54ecdf8c95a04d697ffa33f83ebb6",
    "resource": {
      "resourceType": "Condition",
      "meta": {
        "profile": [ "https://www.netzwerk-universitaetsmedizin.de/fhir/StructureDefinition/rheumatological-immunological-diseases" ]
      },
      "identifier": [ {
        "system": "https://mein.krankenhaus.de/fhir/NamingSystem/conditionId",
        "value": "d14f2e97e2e836a4a4b072030d5c59c72634c99b16efeffbc66a6a4ba91ad05e"
      } ],
      "verificationStatus": {
        "coding": [ {
          "system": "http://terminology.hl7.org/CodeSystem/condition-ver-status",
          "code": "refuted",
          "display": "Refuted"
        }, {
          "system": "http://snomed.info/sct",
          "code": "410594000",
          "display": "Definitely NOT present (qualifier value)"
        } ]
      },
      "category": [ {
        "coding": [ {
          "system": "http://snomed.info/sct",
          "code": "394810000",
          "display": "Rheumatology (qualifier value)"
        }, {
          "system": "http://snomed.info/sct",
          "code": "408480009",
          "display": "Clinical immunology (qualifier value)"
        } ]
      } ],
      "code": {
        "coding": [ {
          "system": "http://fhir.de/CodeSystem/dimdi/icd-10-gm",
          "version": "2021",
          "code": "K52.9"
        }, {
          "system": "http://snomed.info/sct",
          "code": "24526004"
        } ]
      },
      "subject": {
        "reference": "Patient/2fcc931a70f11d9018f4c9551b38cb2a9d313e0d984d6bb22096873c1e8494cb"
      },
      "encounter": {
        "reference": "Encounter/ddfebb2e3f246cfbf1c3a5ca5481eb35fb00278b178969f0f43965653d62e938"
      },
      "_recordedDate": {
        "extension": [ {
          "url": "http://hl7.org/fhir/StructureDefinition/data-absent-reason",
          "valueCode": "unknown"
        } ]
      }
    },
    "request": {
      "method": "POST",
      "url": "Condition",
      "ifNoneExist": "identifier=https://mein.krankenhaus.de/fhir/NamingSystem/conditionId|a6db8db88d6079684ff882a09c461d9a0de54ecdf8c95a04d697ffa33f83ebb6"
    }
  }, {
    "fullUrl": "Condition/71630f13f4ea7d69c3839f6906ea18c914cde3776ce222dc09ad0cde3aa9ce2c",
    "resource": {
      "resourceType": "Condition",
      "meta": {
        "profile": [ "https://www.netzwerk-universitaetsmedizin.de/fhir/StructureDefinition/rheumatological-immunological-diseases" ]
      },
      "identifier": [ {
        "system": "https://mein.krankenhaus.de/fhir/NamingSystem/conditionId",
        "value": "eedeeaf36fad9cd3ec3438ae1819e9224e9e0a04602acfd9eb73f68d620c0040"
      } ],
      "clinicalStatus": {
        "coding": [ {
          "system": "http://terminology.hl7.org/CodeSystem/condition-clinical",
          "code": "active",
          "display": "Active"
        } ]
      },
      "verificationStatus": {
        "coding": [ {
          "system": "http://terminology.hl7.org/CodeSystem/condition-ver-status",
          "code": "confirmed",
          "display": "Confirmed"
        }, {
          "system": "http://snomed.info/sct",
          "code": "410605003",
          "display": "Confirmed present (qualifier value)"
        } ]
      },
      "category": [ {
        "coding": [ {
          "system": "http://snomed.info/sct",
          "code": "394810000",
          "display": "Rheumatology (qualifier value)"
        }, {
          "system": "http://snomed.info/sct",
          "code": "408480009",
          "display": "Clinical immunology (qualifier value)"
        } ]
      } ],
      "code": {
        "coding": [ {
          "system": "http://fhir.de/CodeSystem/dimdi/icd-10-gm",
          "version": "2021",
          "code": "M06.99"
        }, {
          "system": "http://snomed.info/sct",
          "code": "69896004"
        } ]
      },
      "subject": {
        "reference": "Patient/2fcc931a70f11d9018f4c9551b38cb2a9d313e0d984d6bb22096873c1e8494cb"
      },
      "encounter": {
        "reference": "Encounter/ddfebb2e3f246cfbf1c3a5ca5481eb35fb00278b178969f0f43965653d62e938"
      },
      "_recordedDate": {
        "extension": [ {
          "url": "http://hl7.org/fhir/StructureDefinition/data-absent-reason",
          "valueCode": "unknown"
        } ]
      }
    },
    "request": {
      "method": "POST",
      "url": "Condition",
      "ifNoneExist": "identifier=https://mein.krankenhaus.de/fhir/NamingSystem/conditionId|71630f13f4ea7d69c3839f6906ea18c914cde3776ce222dc09ad0cde3aa9ce2c"
    }
  }, {
    "fullUrl": "Condition/08cb26c75e4849467b93a764d46d893ac1660e940041f5ecde4f865443ba8cd0",
    "resource": {
      "resourceType": "Condition",
      "meta": {
        "profile": [ "https://www.netzwerk-universitaetsmedizin.de/fhir/StructureDefinition/rheumatological-immunological-diseases" ]
      },
      "identifier": [ {
        "system": "https://mein.krankenhaus.de/fhir/NamingSystem/conditionId",
        "value": "279e6535a333fa92987468e7995be59cedfaf9b2a6ae2be3aa11901cb7ad8633"
      } ],
      "verificationStatus": {
        "coding": [ {
          "system": "http://terminology.hl7.org/CodeSystem/condition-ver-status",
          "code": "refuted",
          "display": "Refuted"
        }, {
          "system": "http://snomed.info/sct",
          "code": "410594000",
          "display": "Definitely NOT present (qualifier value)"
        } ]
      },
      "category": [ {
        "coding": [ {
          "system": "http://snomed.info/sct",
          "code": "394810000",
          "display": "Rheumatology (qualifier value)"
        }, {
          "system": "http://snomed.info/sct",
          "code": "408480009",
          "display": "Clinical immunology (qualifier value)"
        } ]
      } ],
      "code": {
        "coding": [ {
          "system": "http://fhir.de/CodeSystem/dimdi/icd-10-gm",
          "version": "2021",
          "code": "M35.9"
        }, {
          "system": "http://snomed.info/sct",
          "code": "105969002"
        } ]
      },
      "subject": {
        "reference": "Patient/2fcc931a70f11d9018f4c9551b38cb2a9d313e0d984d6bb22096873c1e8494cb"
      },
      "encounter": {
        "reference": "Encounter/ddfebb2e3f246cfbf1c3a5ca5481eb35fb00278b178969f0f43965653d62e938"
      },
      "_recordedDate": {
        "extension": [ {
          "url": "http://hl7.org/fhir/StructureDefinition/data-absent-reason",
          "valueCode": "unknown"
        } ]
      }
    },
    "request": {
      "method": "POST",
      "url": "Condition",
      "ifNoneExist": "identifier=https://mein.krankenhaus.de/fhir/NamingSystem/conditionId|08cb26c75e4849467b93a764d46d893ac1660e940041f5ecde4f865443ba8cd0"
    }
  }, {
    "fullUrl": "Condition/f424766dd0d5bad41ce1a4c6f3a8ddcec033b4c75f8a9da43d4fb5a6e545a5e0",
    "resource": {
      "resourceType": "Condition",
      "meta": {
        "profile": [ "https://www.netzwerk-universitaetsmedizin.de/fhir/StructureDefinition/rheumatological-immunological-diseases" ]
      },
      "identifier": [ {
        "system": "https://mein.krankenhaus.de/fhir/NamingSystem/conditionId",
        "value": "62ad8c46d90b90cc726b2bd18f48ea04258de81834d2a34d9de1fe97216189eb"
      } ],
      "verificationStatus": {
        "coding": [ {
          "system": "http://terminology.hl7.org/CodeSystem/condition-ver-status",
          "code": "refuted",
          "display": "Refuted"
        }, {
          "system": "http://snomed.info/sct",
          "code": "410594000",
          "display": "Definitely NOT present (qualifier value)"
        } ]
      },
      "category": [ {
        "coding": [ {
          "system": "http://snomed.info/sct",
          "code": "394810000",
          "display": "Rheumatology (qualifier value)"
        }, {
          "system": "http://snomed.info/sct",
          "code": "408480009",
          "display": "Clinical immunology (qualifier value)"
        } ]
      } ],
      "code": {
        "coding": [ {
          "system": "http://fhir.de/CodeSystem/dimdi/icd-10-gm",
          "version": "2021",
          "code": "I77.6"
        }, {
          "system": "http://snomed.info/sct",
          "code": "31996006"
        } ]
      },
      "subject": {
        "reference": "Patient/2fcc931a70f11d9018f4c9551b38cb2a9d313e0d984d6bb22096873c1e8494cb"
      },
      "encounter": {
        "reference": "Encounter/ddfebb2e3f246cfbf1c3a5ca5481eb35fb00278b178969f0f43965653d62e938"
      },
      "_recordedDate": {
        "extension": [ {
          "url": "http://hl7.org/fhir/StructureDefinition/data-absent-reason",
          "valueCode": "unknown"
        } ]
      }
    },
    "request": {
      "method": "POST",
      "url": "Condition",
      "ifNoneExist": "identifier=https://mein.krankenhaus.de/fhir/NamingSystem/conditionId|f424766dd0d5bad41ce1a4c6f3a8ddcec033b4c75f8a9da43d4fb5a6e545a5e0"
    }
  }, {
    "fullUrl": "Condition/3185e06268bccc4d20f9463dd2c1212ccecf4d29fa28a4492407beec6f0a4cc1",
    "resource": {
      "resourceType": "Condition",
      "meta": {
        "profile": [ "https://www.netzwerk-universitaetsmedizin.de/fhir/StructureDefinition/rheumatological-immunological-diseases" ]
      },
      "modifierExtension": [ {
        "url": "https://www.netzwerk-universitaetsmedizin.de/fhir/StructureDefinition/uncertainty-of-presence",
        "valueCodeableConcept": {
          "coding": [ {
            "system": "http://snomed.info/sct",
            "code": "261665006",
            "display": "Unknown (qualifier value)"
          } ],
          "text": "Presence unknown."
        }
      } ],
      "identifier": [ {
        "system": "https://mein.krankenhaus.de/fhir/NamingSystem/conditionId",
        "value": "501606a7784b5a7fbc5b844c2cfde7f0b4ddfe3b263059ca23eedf077284f5b0"
      } ],
      "category": [ {
        "coding": [ {
          "system": "http://snomed.info/sct",
          "code": "394810000",
          "display": "Rheumatology (qualifier value)"
        }, {
          "system": "http://snomed.info/sct",
          "code": "408480009",
          "display": "Clinical immunology (qualifier value)"
        } ]
      } ],
      "code": {
        "coding": [ {
          "system": "http://fhir.de/CodeSystem/dimdi/icd-10-gm",
          "version": "2021",
          "code": "D84.8"
        }, {
          "system": "http://snomed.info/sct",
          "code": "36138009"
        } ]
      },
      "subject": {
        "reference": "Patient/2fcc931a70f11d9018f4c9551b38cb2a9d313e0d984d6bb22096873c1e8494cb"
      },
      "encounter": {
        "reference": "Encounter/ddfebb2e3f246cfbf1c3a5ca5481eb35fb00278b178969f0f43965653d62e938"
      },
      "_recordedDate": {
        "extension": [ {
          "url": "http://hl7.org/fhir/StructureDefinition/data-absent-reason",
          "valueCode": "unknown"
        } ]
      }
    },
    "request": {
      "method": "POST",
      "url": "Condition",
      "ifNoneExist": "identifier=https://mein.krankenhaus.de/fhir/NamingSystem/conditionId|3185e06268bccc4d20f9463dd2c1212ccecf4d29fa28a4492407beec6f0a4cc1"
    }
  }, {
    "fullUrl": "Condition/0515d0fe718c524411f890e16d2d546dc7eac662981d4806dbe36562fcc3ba84",
    "resource": {
      "resourceType": "Condition",
      "meta": {
        "profile": [ "https://www.netzwerk-universitaetsmedizin.de/fhir/StructureDefinition/rheumatological-immunological-diseases" ]
      },
      "modifierExtension": [ {
        "url": "https://www.netzwerk-universitaetsmedizin.de/fhir/StructureDefinition/uncertainty-of-presence",
        "valueCodeableConcept": {
          "coding": [ {
            "system": "http://snomed.info/sct",
            "code": "261665006",
            "display": "Unknown (qualifier value)"
          } ],
          "text": "Presence unknown."
        }
      } ],
      "identifier": [ {
        "system": "https://mein.krankenhaus.de/fhir/NamingSystem/conditionId",
        "value": "a07c37b20bd5ddba959c8c6f78257f93617b15deb039a75cfb6dd00f8a8633c3"
      } ],
      "category": [ {
        "coding": [ {
          "system": "http://snomed.info/sct",
          "code": "394810000",
          "display": "Rheumatology (qualifier value)"
        }, {
          "system": "http://snomed.info/sct",
          "code": "408480009",
          "display": "Clinical immunology (qualifier value)"
        } ]
      } ],
      "code": {
        "coding": [ {
          "system": "http://fhir.de/CodeSystem/dimdi/icd-10-gm",
          "version": "2021",
          "code": "D84.8"
        }, {
          "system": "http://snomed.info/sct",
          "code": "396332003+414029004"
        } ]
      },
      "subject": {
        "reference": "Patient/2fcc931a70f11d9018f4c9551b38cb2a9d313e0d984d6bb22096873c1e8494cb"
      },
      "encounter": {
        "reference": "Encounter/ddfebb2e3f246cfbf1c3a5ca5481eb35fb00278b178969f0f43965653d62e938"
      },
      "_recordedDate": {
        "extension": [ {
          "url": "http://hl7.org/fhir/StructureDefinition/data-absent-reason",
          "valueCode": "unknown"
        } ]
      }
    },
    "request": {
      "method": "POST",
      "url": "Condition",
      "ifNoneExist": "identifier=https://mein.krankenhaus.de/fhir/NamingSystem/conditionId|0515d0fe718c524411f890e16d2d546dc7eac662981d4806dbe36562fcc3ba84"
    }
  }, {
    "fullUrl": "Condition/f73799419fc49a1b38320bfc5649b36b79be6853f7ae0e1060cb1b85426520b6",
    "resource": {
      "resourceType": "Condition",
      "meta": {
        "profile": [ "https://www.netzwerk-universitaetsmedizin.de/fhir/StructureDefinition/human-immunodeficiency-virus-infection" ]
      },
      "identifier": [ {
        "system": "https://mein.krankenhaus.de/fhir/NamingSystem/conditionId",
        "value": "f4e364e30ab13c91e6bbe82675c35b79591f8552c838db2b1940d6d9b9b61519"
      } ],
      "clinicalStatus": {
        "coding": [ {
          "system": "http://terminology.hl7.org/CodeSystem/condition-clinical",
          "code": "active",
          "display": "Active"
        } ]
      },
      "verificationStatus": {
        "coding": [ {
          "system": "http://terminology.hl7.org/CodeSystem/condition-ver-status",
          "code": "confirmed",
          "display": "Confirmed"
        }, {
          "system": "http://snomed.info/sct",
          "code": "410605003",
          "display": "Confirmed present (qualifier value)"
        } ]
      },
      "category": [ {
        "coding": [ {
          "system": "http://snomed.info/sct",
          "code": "394807007",
          "display": "Infectious diseases (specialty) (qualifier value)"
        } ]
      } ],
      "code": {
        "coding": [ {
          "system": "http://fhir.de/CodeSystem/dimdi/icd-10-gm",
          "version": "2021",
          "code": "B24"
        }, {
          "system": "http://snomed.info/sct",
          "code": "86406008"
        } ]
      },
      "subject": {
        "reference": "Patient/2fcc931a70f11d9018f4c9551b38cb2a9d313e0d984d6bb22096873c1e8494cb"
      },
      "encounter": {
        "reference": "Encounter/ddfebb2e3f246cfbf1c3a5ca5481eb35fb00278b178969f0f43965653d62e938"
      },
      "_recordedDate": {
        "extension": [ {
          "url": "http://hl7.org/fhir/StructureDefinition/data-absent-reason",
          "valueCode": "unknown"
        } ]
      }
    },
    "request": {
      "method": "POST",
      "url": "Condition",
      "ifNoneExist": "identifier=https://mein.krankenhaus.de/fhir/NamingSystem/conditionId|f73799419fc49a1b38320bfc5649b36b79be6853f7ae0e1060cb1b85426520b6"
    }
  }, {
    "fullUrl": "Condition/5984efac7c00832e27d5d73b97bfb7c799d06c720ce01e8d49d6d2cedd9a8800",
    "resource": {
      "resourceType": "Condition",
      "meta": {
        "profile": [ "https://www.netzwerk-universitaetsmedizin.de/fhir/StructureDefinition/organ-recipient" ]
      },
      "modifierExtension": [ {
        "url": "https://www.netzwerk-universitaetsmedizin.de/fhir/StructureDefinition/uncertainty-of-presence",
        "valueCodeableConcept": {
          "coding": [ {
            "system": "http://snomed.info/sct",
            "code": "261665006",
            "display": "Unknown (qualifier value)"
          } ],
          "text": "Presence unknown."
        }
      } ],
      "identifier": [ {
        "system": "https://mein.krankenhaus.de/fhir/NamingSystem/conditionId",
        "value": "48c1a9ef322956a1f43364a86259baa27e2fcefb4472587342a3a387bd5d937b"
      } ],
      "category": [ {
        "coding": [ {
          "system": "http://snomed.info/sct",
          "code": "788415003",
          "display": "Transplant medicine (qualifier value)"
        } ]
      } ],
      "code": {
        "coding": [ {
          "system": "http://fhir.de/CodeSystem/dimdi/icd-10-gm",
          "version": "2021",
          "code": "Z94.1"
        } ]
      },
      "bodySite": [ {
        "coding": [ {
          "system": "http://snomed.info/sct",
          "code": "302509004"
        } ]
      } ],
      "subject": {
        "reference": "Patient/2fcc931a70f11d9018f4c9551b38cb2a9d313e0d984d6bb22096873c1e8494cb"
      },
      "encounter": {
        "reference": "Encounter/ddfebb2e3f246cfbf1c3a5ca5481eb35fb00278b178969f0f43965653d62e938"
      },
      "_recordedDate": {
        "extension": [ {
          "url": "http://hl7.org/fhir/StructureDefinition/data-absent-reason",
          "valueCode": "unknown"
        } ]
      }
    },
    "request": {
      "method": "POST",
      "url": "Condition",
      "ifNoneExist": "identifier=https://mein.krankenhaus.de/fhir/NamingSystem/conditionId|5984efac7c00832e27d5d73b97bfb7c799d06c720ce01e8d49d6d2cedd9a8800"
    }
  }, {
    "fullUrl": "Condition/f3f380e74fe68d83774a91b45d92085f49b9682310fea8dcef94b1a38cedb6a4",
    "resource": {
      "resourceType": "Condition",
      "meta": {
        "profile": [ "https://www.netzwerk-universitaetsmedizin.de/fhir/StructureDefinition/organ-recipient" ]
      },
      "modifierExtension": [ {
        "url": "https://www.netzwerk-universitaetsmedizin.de/fhir/StructureDefinition/uncertainty-of-presence",
        "valueCodeableConcept": {
          "coding": [ {
            "system": "http://snomed.info/sct",
            "code": "261665006",
            "display": "Unknown (qualifier value)"
          } ],
          "text": "Presence unknown."
        }
      } ],
      "identifier": [ {
        "system": "https://mein.krankenhaus.de/fhir/NamingSystem/conditionId",
        "value": "30f68457868eba24e5359fb19fb14c1af0b34fd16ce1b114d2818b5e3f0f7440"
      } ],
      "category": [ {
        "coding": [ {
          "system": "http://snomed.info/sct",
          "code": "788415003",
          "display": "Transplant medicine (qualifier value)"
        } ]
      } ],
      "code": {
        "coding": [ {
          "system": "http://fhir.de/CodeSystem/dimdi/icd-10-gm",
          "version": "2021",
          "code": "Z94.2"
        } ]
      },
      "bodySite": [ {
        "coding": [ {
          "system": "http://snomed.info/sct",
          "code": "181216001"
        } ]
      } ],
      "subject": {
        "reference": "Patient/2fcc931a70f11d9018f4c9551b38cb2a9d313e0d984d6bb22096873c1e8494cb"
      },
      "encounter": {
        "reference": "Encounter/ddfebb2e3f246cfbf1c3a5ca5481eb35fb00278b178969f0f43965653d62e938"
      },
      "_recordedDate": {
        "extension": [ {
          "url": "http://hl7.org/fhir/StructureDefinition/data-absent-reason",
          "valueCode": "unknown"
        } ]
      }
    },
    "request": {
      "method": "POST",
      "url": "Condition",
      "ifNoneExist": "identifier=https://mein.krankenhaus.de/fhir/NamingSystem/conditionId|f3f380e74fe68d83774a91b45d92085f49b9682310fea8dcef94b1a38cedb6a4"
    }
  }, {
    "fullUrl": "Condition/2dc443eb25b3a315f4f86c14431ec055b8e04df8d6f9da666c9d14adf456d07f",
    "resource": {
      "resourceType": "Condition",
      "meta": {
        "profile": [ "https://www.netzwerk-universitaetsmedizin.de/fhir/StructureDefinition/organ-recipient" ]
      },
      "modifierExtension": [ {
        "url": "https://www.netzwerk-universitaetsmedizin.de/fhir/StructureDefinition/uncertainty-of-presence",
        "valueCodeableConcept": {
          "coding": [ {
            "system": "http://snomed.info/sct",
            "code": "261665006",
            "display": "Unknown (qualifier value)"
          } ],
          "text": "Presence unknown."
        }
      } ],
      "identifier": [ {
        "system": "https://mein.krankenhaus.de/fhir/NamingSystem/conditionId",
        "value": "7d81aacb1559f8dc09b6a59d0e73087b37377f30e7374fc90bdf9e23244e2fed"
      } ],
      "category": [ {
        "coding": [ {
          "system": "http://snomed.info/sct",
          "code": "788415003",
          "display": "Transplant medicine (qualifier value)"
        } ]
      } ],
      "code": {
        "coding": [ {
          "system": "http://fhir.de/CodeSystem/dimdi/icd-10-gm",
          "version": "2021",
          "code": "Z94.4"
        } ]
      },
      "bodySite": [ {
        "coding": [ {
          "system": "http://snomed.info/sct",
          "code": "181268008"
        } ]
      } ],
      "subject": {
        "reference": "Patient/2fcc931a70f11d9018f4c9551b38cb2a9d313e0d984d6bb22096873c1e8494cb"
      },
      "encounter": {
        "reference": "Encounter/ddfebb2e3f246cfbf1c3a5ca5481eb35fb00278b178969f0f43965653d62e938"
      },
      "_recordedDate": {
        "extension": [ {
          "url": "http://hl7.org/fhir/StructureDefinition/data-absent-reason",
          "valueCode": "unknown"
        } ]
      }
    },
    "request": {
      "method": "POST",
      "url": "Condition",
      "ifNoneExist": "identifier=https://mein.krankenhaus.de/fhir/NamingSystem/conditionId|2dc443eb25b3a315f4f86c14431ec055b8e04df8d6f9da666c9d14adf456d07f"
    }
  }, {
    "fullUrl": "Condition/28f47a0781dd0c99fb67267177bdc407b680019f72fecb5735cb111c9bd3cca6",
    "resource": {
      "resourceType": "Condition",
      "meta": {
        "profile": [ "https://www.netzwerk-universitaetsmedizin.de/fhir/StructureDefinition/organ-recipient" ]
      },
      "identifier": [ {
        "system": "https://mein.krankenhaus.de/fhir/NamingSystem/conditionId",
        "value": "22b8df3b11c715f91c111f4939688befbfd5142303d2304dc41263651b1719bb"
      } ],
      "clinicalStatus": {
        "coding": [ {
          "system": "http://terminology.hl7.org/CodeSystem/condition-clinical",
          "code": "active",
          "display": "Active"
        } ]
      },
      "verificationStatus": {
        "coding": [ {
          "system": "http://terminology.hl7.org/CodeSystem/condition-ver-status",
          "code": "confirmed",
          "display": "Confirmed"
        }, {
          "system": "http://snomed.info/sct",
          "code": "410605003",
          "display": "Confirmed present (qualifier value)"
        } ]
      },
      "category": [ {
        "coding": [ {
          "system": "http://snomed.info/sct",
          "code": "788415003",
          "display": "Transplant medicine (qualifier value)"
        } ]
      } ],
      "code": {
        "coding": [ {
          "system": "http://fhir.de/CodeSystem/dimdi/icd-10-gm",
          "version": "2021",
          "code": "Z94.0"
        } ]
      },
      "bodySite": [ {
        "coding": [ {
          "system": "http://snomed.info/sct",
          "code": "181414000"
        } ]
      } ],
      "subject": {
        "reference": "Patient/2fcc931a70f11d9018f4c9551b38cb2a9d313e0d984d6bb22096873c1e8494cb"
      },
      "encounter": {
        "reference": "Encounter/ddfebb2e3f246cfbf1c3a5ca5481eb35fb00278b178969f0f43965653d62e938"
      },
      "_recordedDate": {
        "extension": [ {
          "url": "http://hl7.org/fhir/StructureDefinition/data-absent-reason",
          "valueCode": "unknown"
        } ]
      }
    },
    "request": {
      "method": "POST",
      "url": "Condition",
      "ifNoneExist": "identifier=https://mein.krankenhaus.de/fhir/NamingSystem/conditionId|28f47a0781dd0c99fb67267177bdc407b680019f72fecb5735cb111c9bd3cca6"
    }
  }, {
    "fullUrl": "Condition/c55636be29366fb395100891edde8fbb3c2643399fc422e894641c79fb529b52",
    "resource": {
      "resourceType": "Condition",
      "meta": {
        "profile": [ "https://www.netzwerk-universitaetsmedizin.de/fhir/StructureDefinition/organ-recipient" ]
      },
      "identifier": [ {
        "system": "https://mein.krankenhaus.de/fhir/NamingSystem/conditionId",
        "value": "7a41b4a26cb352f12ce14439fcd812c54e6dc99447b2946d290a77b35c6a6f2f"
      } ],
      "verificationStatus": {
        "coding": [ {
          "system": "http://terminology.hl7.org/CodeSystem/condition-ver-status",
          "code": "refuted",
          "display": "Refuted"
        }, {
          "system": "http://snomed.info/sct",
          "code": "410594000",
          "display": "Definitely NOT present (qualifier value)"
        } ]
      },
      "category": [ {
        "coding": [ {
          "system": "http://snomed.info/sct",
          "code": "788415003",
          "display": "Transplant medicine (qualifier value)"
        } ]
      } ],
      "code": {
        "coding": [ {
          "system": "http://fhir.de/CodeSystem/dimdi/icd-10-gm",
          "version": "2021",
          "code": "Z94.88"
        } ]
      },
      "bodySite": [ {
        "coding": [ {
          "system": "http://snomed.info/sct",
          "code": "113276009"
        } ]
      } ],
      "subject": {
        "reference": "Patient/2fcc931a70f11d9018f4c9551b38cb2a9d313e0d984d6bb22096873c1e8494cb"
      },
      "encounter": {
        "reference": "Encounter/ddfebb2e3f246cfbf1c3a5ca5481eb35fb00278b178969f0f43965653d62e938"
      },
      "_recordedDate": {
        "extension": [ {
          "url": "http://hl7.org/fhir/StructureDefinition/data-absent-reason",
          "valueCode": "unknown"
        } ]
      }
    },
    "request": {
      "method": "POST",
      "url": "Condition",
      "ifNoneExist": "identifier=https://mein.krankenhaus.de/fhir/NamingSystem/conditionId|c55636be29366fb395100891edde8fbb3c2643399fc422e894641c79fb529b52"
    }
  }, {
    "fullUrl": "Condition/89613f306777bb2a0596189945a87b622472b7eba8313575e1a6d4330886ffcf",
    "resource": {
      "resourceType": "Condition",
      "meta": {
        "profile": [ "https://www.netzwerk-universitaetsmedizin.de/fhir/StructureDefinition/organ-recipient" ]
      },
      "modifierExtension": [ {
        "url": "https://www.netzwerk-universitaetsmedizin.de/fhir/StructureDefinition/uncertainty-of-presence",
        "valueCodeableConcept": {
          "coding": [ {
            "system": "http://snomed.info/sct",
            "code": "261665006",
            "display": "Unknown (qualifier value)"
          } ],
          "text": "Presence unknown."
        }
      } ],
      "identifier": [ {
        "system": "https://mein.krankenhaus.de/fhir/NamingSystem/conditionId",
        "value": "6e461cf2e1eef505ca364d08eaf1df00d2e205da7bafa46b08887089d7d67b67"
      } ],
      "category": [ {
        "coding": [ {
          "system": "http://snomed.info/sct",
          "code": "788415003",
          "display": "Transplant medicine (qualifier value)"
        } ]
      } ],
      "code": {
        "coding": [ {
          "system": "http://fhir.de/CodeSystem/dimdi/icd-10-gm",
          "version": "2021",
          "code": "Z94.5"
        } ]
      },
      "bodySite": [ {
        "coding": [ {
          "system": "http://snomed.info/sct",
          "code": "119181002"
        } ]
      } ],
      "subject": {
        "reference": "Patient/2fcc931a70f11d9018f4c9551b38cb2a9d313e0d984d6bb22096873c1e8494cb"
      },
      "encounter": {
        "reference": "Encounter/ddfebb2e3f246cfbf1c3a5ca5481eb35fb00278b178969f0f43965653d62e938"
      },
      "_recordedDate": {
        "extension": [ {
          "url": "http://hl7.org/fhir/StructureDefinition/data-absent-reason",
          "valueCode": "unknown"
        } ]
      }
    },
    "request": {
      "method": "POST",
      "url": "Condition",
      "ifNoneExist": "identifier=https://mein.krankenhaus.de/fhir/NamingSystem/conditionId|89613f306777bb2a0596189945a87b622472b7eba8313575e1a6d4330886ffcf"
    }
  }, {
    "fullUrl": "Condition/0e89d8dde6b7fb00031236e5671c2571532ac0784e81e5567a8fdb03f04bfdab",
    "resource": {
      "resourceType": "Condition",
      "meta": {
        "profile": [ "https://www.netzwerk-universitaetsmedizin.de/fhir/StructureDefinition/organ-recipient" ]
      },
      "identifier": [ {
        "system": "https://mein.krankenhaus.de/fhir/NamingSystem/conditionId",
        "value": "7102e7269c427fd92cd5cb5aab1cccd17d509ddf63c3a3a210502a4d5d02cca8"
      } ],
      "clinicalStatus": {
        "coding": [ {
          "system": "http://terminology.hl7.org/CodeSystem/condition-clinical",
          "code": "active",
          "display": "Active"
        } ]
      },
      "verificationStatus": {
        "coding": [ {
          "system": "http://terminology.hl7.org/CodeSystem/condition-ver-status",
          "code": "confirmed",
          "display": "Confirmed"
        }, {
          "system": "http://snomed.info/sct",
          "code": "410605003",
          "display": "Confirmed present (qualifier value)"
        } ]
      },
      "category": [ {
        "coding": [ {
          "system": "http://snomed.info/sct",
          "code": "788415003",
          "display": "Transplant medicine (qualifier value)"
        } ]
      } ],
      "code": {
        "coding": [ {
          "system": "http://fhir.de/CodeSystem/dimdi/icd-10-gm",
          "version": "2021",
          "code": "Z94.9"
        } ]
      },
      "bodySite": [ {
        "coding": [ {
          "system": "http://snomed.info/sct",
          "code": "41845008"
        } ]
      } ],
      "subject": {
        "reference": "Patient/2fcc931a70f11d9018f4c9551b38cb2a9d313e0d984d6bb22096873c1e8494cb"
      },
      "encounter": {
        "reference": "Encounter/ddfebb2e3f246cfbf1c3a5ca5481eb35fb00278b178969f0f43965653d62e938"
      },
      "_recordedDate": {
        "extension": [ {
          "url": "http://hl7.org/fhir/StructureDefinition/data-absent-reason",
          "valueCode": "unknown"
        } ]
      }
    },
    "request": {
      "method": "POST",
      "url": "Condition",
      "ifNoneExist": "identifier=https://mein.krankenhaus.de/fhir/NamingSystem/conditionId|0e89d8dde6b7fb00031236e5671c2571532ac0784e81e5567a8fdb03f04bfdab"
    }
  }, {
    "fullUrl": "Condition/c6c49c98cbf41621316e34cc7f7000925f10b962c5770fdc9413b33d89bdf1bc",
    "resource": {
      "resourceType": "Condition",
      "meta": {
        "profile": [ "https://www.netzwerk-universitaetsmedizin.de/fhir/StructureDefinition/organ-recipient" ]
      },
      "identifier": [ {
        "system": "https://mein.krankenhaus.de/fhir/NamingSystem/conditionId",
        "value": "7160a0c926febe17232938f15e12c8d15c8abab47f69a65a53b343e7e96b1785"
      } ],
      "clinicalStatus": {
        "coding": [ {
          "system": "http://terminology.hl7.org/CodeSystem/condition-clinical",
          "code": "active",
          "display": "Active"
        } ]
      },
      "verificationStatus": {
        "coding": [ {
          "system": "http://terminology.hl7.org/CodeSystem/condition-ver-status",
          "code": "confirmed",
          "display": "Confirmed"
        }, {
          "system": "http://snomed.info/sct",
          "code": "410605003",
          "display": "Confirmed present (qualifier value)"
        } ]
      },
      "category": [ {
        "coding": [ {
          "system": "http://snomed.info/sct",
          "code": "788415003",
          "display": "Transplant medicine (qualifier value)"
        } ]
      } ],
      "code": {
        "coding": [ {
          "system": "http://fhir.de/CodeSystem/dimdi/icd-10-gm",
          "version": "2021",
          "code": "Z95.88"
        } ]
      },
      "bodySite": [ {
        "coding": [ {
          "system": "http://snomed.info/sct",
          "code": "181285005"
        } ]
      } ],
      "subject": {
        "reference": "Patient/2fcc931a70f11d9018f4c9551b38cb2a9d313e0d984d6bb22096873c1e8494cb"
      },
      "encounter": {
        "reference": "Encounter/ddfebb2e3f246cfbf1c3a5ca5481eb35fb00278b178969f0f43965653d62e938"
      },
      "_recordedDate": {
        "extension": [ {
          "url": "http://hl7.org/fhir/StructureDefinition/data-absent-reason",
          "valueCode": "unknown"
        } ]
      }
    },
    "request": {
      "method": "POST",
      "url": "Condition",
      "ifNoneExist": "identifier=https://mein.krankenhaus.de/fhir/NamingSystem/conditionId|c6c49c98cbf41621316e34cc7f7000925f10b962c5770fdc9413b33d89bdf1bc"
    }
  }, {
    "fullUrl": "Condition/967c1cce9d4a9bfbef534a2d28657b8ae87e50fa71d172265888771d95f8f0e3",
    "resource": {
      "resourceType": "Condition",
      "meta": {
        "profile": [ "https://www.netzwerk-universitaetsmedizin.de/fhir/StructureDefinition/organ-recipient" ]
      },
      "identifier": [ {
        "system": "https://mein.krankenhaus.de/fhir/NamingSystem/conditionId",
        "value": "672d51a29bcb2e5b83d7b9a419aad9c2f90ab5b5a62eba011911732bd7b9a0ac"
      } ],
      "verificationStatus": {
        "coding": [ {
          "system": "http://terminology.hl7.org/CodeSystem/condition-ver-status",
          "code": "refuted",
          "display": "Refuted"
        }, {
          "system": "http://snomed.info/sct",
          "code": "410594000",
          "display": "Definitely NOT present (qualifier value)"
        } ]
      },
      "category": [ {
        "coding": [ {
          "system": "http://snomed.info/sct",
          "code": "788415003",
          "display": "Transplant medicine (qualifier value)"
        } ]
      } ],
      "code": {
        "coding": [ {
          "system": "http://fhir.de/CodeSystem/dimdi/icd-10-gm",
          "version": "2021",
          "code": "Z95.5"
        } ]
      },
      "bodySite": [ {
        "coding": [ {
          "system": "http://snomed.info/sct",
          "code": "119206002"
        } ]
      } ],
      "subject": {
        "reference": "Patient/2fcc931a70f11d9018f4c9551b38cb2a9d313e0d984d6bb22096873c1e8494cb"
      },
      "encounter": {
        "reference": "Encounter/ddfebb2e3f246cfbf1c3a5ca5481eb35fb00278b178969f0f43965653d62e938"
      },
      "_recordedDate": {
        "extension": [ {
          "url": "http://hl7.org/fhir/StructureDefinition/data-absent-reason",
          "valueCode": "unknown"
        } ]
      }
    },
    "request": {
      "method": "POST",
      "url": "Condition",
      "ifNoneExist": "identifier=https://mein.krankenhaus.de/fhir/NamingSystem/conditionId|967c1cce9d4a9bfbef534a2d28657b8ae87e50fa71d172265888771d95f8f0e3"
    }
  }, {
    "fullUrl": "Condition/68b122283e8ae04408dfb6fe79d5d7921759d963280ed70e3e18793e269835c6",
    "resource": {
      "resourceType": "Condition",
      "meta": {
        "profile": [ "https://www.netzwerk-universitaetsmedizin.de/fhir/StructureDefinition/organ-recipient" ]
      },
      "identifier": [ {
        "system": "https://mein.krankenhaus.de/fhir/NamingSystem/conditionId",
        "value": "300ab9ba94ebf204f6beac5263fbbf78764dd096c5decaf994b8df31aea6b1e6"
      } ],
      "verificationStatus": {
        "coding": [ {
          "system": "http://terminology.hl7.org/CodeSystem/condition-ver-status",
          "code": "refuted",
          "display": "Refuted"
        }, {
          "system": "http://snomed.info/sct",
          "code": "410594000",
          "display": "Definitely NOT present (qualifier value)"
        } ]
      },
      "category": [ {
        "coding": [ {
          "system": "http://snomed.info/sct",
          "code": "788415003",
          "display": "Transplant medicine (qualifier value)"
        } ]
      } ],
      "code": {
        "coding": [ {
          "system": "http://fhir.de/CodeSystem/dimdi/icd-10-gm",
          "version": "2021",
          "code": "Z94.9"
        } ]
      },
      "bodySite": [ {
        "coding": [ {
          "system": "http://snomed.info/sct",
          "code": "8935007"
        } ]
      } ],
      "subject": {
        "reference": "Patient/2fcc931a70f11d9018f4c9551b38cb2a9d313e0d984d6bb22096873c1e8494cb"
      },
      "encounter": {
        "reference": "Encounter/ddfebb2e3f246cfbf1c3a5ca5481eb35fb00278b178969f0f43965653d62e938"
      },
      "_recordedDate": {
        "extension": [ {
          "url": "http://hl7.org/fhir/StructureDefinition/data-absent-reason",
          "valueCode": "unknown"
        } ]
      }
    },
    "request": {
      "method": "POST",
      "url": "Condition",
      "ifNoneExist": "identifier=https://mein.krankenhaus.de/fhir/NamingSystem/conditionId|68b122283e8ae04408dfb6fe79d5d7921759d963280ed70e3e18793e269835c6"
    }
  }, {
    "fullUrl": "Condition/61330a77d44548e35be056d969f2ad006cb6b61181a462849a50d13cb1958fac",
    "resource": {
      "resourceType": "Condition",
      "meta": {
        "profile": [ "https://www.netzwerk-universitaetsmedizin.de/fhir/StructureDefinition/organ-recipient" ]
      },
      "modifierExtension": [ {
        "url": "https://www.netzwerk-universitaetsmedizin.de/fhir/StructureDefinition/uncertainty-of-presence",
        "valueCodeableConcept": {
          "coding": [ {
            "system": "http://snomed.info/sct",
            "code": "261665006",
            "display": "Unknown (qualifier value)"
          } ],
          "text": "Presence unknown."
        }
      } ],
      "identifier": [ {
        "system": "https://mein.krankenhaus.de/fhir/NamingSystem/conditionId",
        "value": "a54bd1998f6240916a7bf4fa58e851e301a80e81014013473e30aa62eb49e75c"
      } ],
      "category": [ {
        "coding": [ {
          "system": "http://snomed.info/sct",
          "code": "788415003",
          "display": "Transplant medicine (qualifier value)"
        } ]
      } ],
      "code": {
        "coding": [ {
          "system": "http://fhir.de/CodeSystem/dimdi/icd-10-gm",
          "version": "2021",
          "code": "Z94.6"
        } ]
      },
      "bodySite": [ {
        "coding": [ {
          "system": "http://snomed.info/sct",
          "code": "3138006"
        } ]
      } ],
      "subject": {
        "reference": "Patient/2fcc931a70f11d9018f4c9551b38cb2a9d313e0d984d6bb22096873c1e8494cb"
      },
      "encounter": {
        "reference": "Encounter/ddfebb2e3f246cfbf1c3a5ca5481eb35fb00278b178969f0f43965653d62e938"
      },
      "_recordedDate": {
        "extension": [ {
          "url": "http://hl7.org/fhir/StructureDefinition/data-absent-reason",
          "valueCode": "unknown"
        } ]
      }
    },
    "request": {
      "method": "POST",
      "url": "Condition",
      "ifNoneExist": "identifier=https://mein.krankenhaus.de/fhir/NamingSystem/conditionId|61330a77d44548e35be056d969f2ad006cb6b61181a462849a50d13cb1958fac"
    }
  }, {
    "fullUrl": "Condition/dc2375f5f304404b6e822883d8fd06d296f3f986388ca113adcb9734546b75f5",
    "resource": {
      "resourceType": "Condition",
      "meta": {
        "profile": [ "https://www.netzwerk-universitaetsmedizin.de/fhir/StructureDefinition/organ-recipient" ]
      },
      "modifierExtension": [ {
        "url": "https://www.netzwerk-universitaetsmedizin.de/fhir/StructureDefinition/uncertainty-of-presence",
        "valueCodeableConcept": {
          "coding": [ {
            "system": "http://snomed.info/sct",
            "code": "261665006",
            "display": "Unknown (qualifier value)"
          } ],
          "text": "Presence unknown."
        }
      } ],
      "identifier": [ {
        "system": "https://mein.krankenhaus.de/fhir/NamingSystem/conditionId",
        "value": "8b2a27b1768a1753429799afc00c2090a13df37f7ceed4b5aedc1bf433f73e3e"
      } ],
      "category": [ {
        "coding": [ {
          "system": "http://snomed.info/sct",
          "code": "788415003",
          "display": "Transplant medicine (qualifier value)"
        } ]
      } ],
      "code": {
        "coding": [ {
          "system": "http://fhir.de/CodeSystem/dimdi/icd-10-gm",
          "version": "2021",
          "code": "Z94.9"
        } ]
      },
      "bodySite": [ {
        "coding": [ {
          "system": "http://snomed.info/sct",
          "code": "309312004"
        } ]
      } ],
      "subject": {
        "reference": "Patient/2fcc931a70f11d9018f4c9551b38cb2a9d313e0d984d6bb22096873c1e8494cb"
      },
      "encounter": {
        "reference": "Encounter/ddfebb2e3f246cfbf1c3a5ca5481eb35fb00278b178969f0f43965653d62e938"
      },
      "_recordedDate": {
        "extension": [ {
          "url": "http://hl7.org/fhir/StructureDefinition/data-absent-reason",
          "valueCode": "unknown"
        } ]
      }
    },
    "request": {
      "method": "POST",
      "url": "Condition",
      "ifNoneExist": "identifier=https://mein.krankenhaus.de/fhir/NamingSystem/conditionId|dc2375f5f304404b6e822883d8fd06d296f3f986388ca113adcb9734546b75f5"
    }
  }, {
    "fullUrl": "Condition/2a7cfb7148de66fed6da3a0e73744c316a923d5be57708bf1013e341d9e24edb",
    "resource": {
      "resourceType": "Condition",
      "meta": {
        "profile": [ "https://www.netzwerk-universitaetsmedizin.de/fhir/StructureDefinition/organ-recipient" ]
      },
      "modifierExtension": [ {
        "url": "https://www.netzwerk-universitaetsmedizin.de/fhir/StructureDefinition/uncertainty-of-presence",
        "valueCodeableConcept": {
          "coding": [ {
            "system": "http://snomed.info/sct",
            "code": "261665006",
            "display": "Unknown (qualifier value)"
          } ],
          "text": "Presence unknown."
        }
      } ],
      "identifier": [ {
        "system": "https://mein.krankenhaus.de/fhir/NamingSystem/conditionId",
        "value": "e8686492bb0e0a1ca0ad614c3a2063335a2440b5a08df94f8e0942870f5f3834"
      } ],
      "category": [ {
        "coding": [ {
          "system": "http://snomed.info/sct",
          "code": "788415003",
          "display": "Transplant medicine (qualifier value)"
        } ]
      } ],
      "code": {
        "coding": [ {
          "system": "http://fhir.de/CodeSystem/dimdi/icd-10-gm",
          "version": "2021",
          "code": "Z94.9"
        } ]
      },
      "bodySite": [ {
        "coding": [ {
          "system": "http://snomed.info/sct",
          "code": "13024002"
        } ]
      } ],
      "subject": {
        "reference": "Patient/2fcc931a70f11d9018f4c9551b38cb2a9d313e0d984d6bb22096873c1e8494cb"
      },
      "encounter": {
        "reference": "Encounter/ddfebb2e3f246cfbf1c3a5ca5481eb35fb00278b178969f0f43965653d62e938"
      },
      "_recordedDate": {
        "extension": [ {
          "url": "http://hl7.org/fhir/StructureDefinition/data-absent-reason",
          "valueCode": "unknown"
        } ]
      }
    },
    "request": {
      "method": "POST",
      "url": "Condition",
      "ifNoneExist": "identifier=https://mein.krankenhaus.de/fhir/NamingSystem/conditionId|2a7cfb7148de66fed6da3a0e73744c316a923d5be57708bf1013e341d9e24edb"
    }
  }, {
    "fullUrl": "Condition/a3f1d9e30ac663a6a6d7a93fccb1b17630b52f3b307a11bdb64af2cca78e3345",
    "resource": {
      "resourceType": "Condition",
      "meta": {
        "profile": [ "https://www.netzwerk-universitaetsmedizin.de/fhir/StructureDefinition/diabetes-mellitus" ]
      },
      "identifier": [ {
        "system": "https://mein.krankenhaus.de/fhir/NamingSystem/conditionId",
        "value": "86f67dcd53c33cc8f50dce1a934e8fb0829204fd2df6168d6dbe85ec9fc12f2b"
      } ],
      "verificationStatus": {
        "coding": [ {
          "system": "http://terminology.hl7.org/CodeSystem/condition-ver-status",
          "code": "confirmed",
          "display": "Confirmed"
        }, {
          "system": "http://snomed.info/sct",
          "code": "410605003",
          "display": "Confirmed present (qualifier value)"
        } ]
      },
      "category": [ {
        "coding": [ {
          "system": "http://snomed.info/sct",
          "code": "408475000",
          "display": "Diabetic medicine (qualifier value)"
        } ]
      } ],
      "code": {
        "coding": [ {
          "system": "http://fhir.de/CodeSystem/dimdi/icd-10-gm",
          "version": "2021",
          "code": "E13.9"
        }, {
          "system": "http://snomed.info/sct",
          "code": "8801005"
        } ]
      },
      "subject": {
        "reference": "Patient/2fcc931a70f11d9018f4c9551b38cb2a9d313e0d984d6bb22096873c1e8494cb"
      },
      "encounter": {
        "reference": "Encounter/ddfebb2e3f246cfbf1c3a5ca5481eb35fb00278b178969f0f43965653d62e938"
      },
      "_recordedDate": {
        "extension": [ {
          "url": "http://hl7.org/fhir/StructureDefinition/data-absent-reason",
          "valueCode": "unknown"
        } ]
      }
    },
    "request": {
      "method": "POST",
      "url": "Condition",
      "ifNoneExist": "identifier=https://mein.krankenhaus.de/fhir/NamingSystem/conditionId|a3f1d9e30ac663a6a6d7a93fccb1b17630b52f3b307a11bdb64af2cca78e3345"
    }
  }, {
    "fullUrl": "Condition/80e2d957f0058b915d6c0c8f3d3a7515c0d2c4e47ff3651b9b5ae85392eede2a",
    "resource": {
      "resourceType": "Condition",
      "meta": {
        "profile": [ "https://www.netzwerk-universitaetsmedizin.de/fhir/StructureDefinition/malignant-neoplastic-disease" ]
      },
      "identifier": [ {
        "system": "https://mein.krankenhaus.de/fhir/NamingSystem/conditionId",
        "value": "f17297a7d314c514020d307f685c8055b864fb2aede9170c5973025f46bf9146"
      } ],
      "clinicalStatus": {
        "coding": [ {
          "system": "http://terminology.hl7.org/CodeSystem/condition-clinical",
          "code": "active",
          "display": "Active"
        } ]
      },
      "verificationStatus": {
        "coding": [ {
          "system": "http://terminology.hl7.org/CodeSystem/condition-ver-status",
          "code": "confirmed",
          "display": "Confirmed"
        }, {
          "system": "http://snomed.info/sct",
          "code": "410605003",
          "display": "Confirmed present (qualifier value)"
        } ]
      },
      "category": [ {
        "coding": [ {
          "system": "http://snomed.info/sct",
          "code": "394593009",
          "display": "Medical oncology (qualifier value)"
        } ]
      } ],
      "code": {
        "coding": [ {
          "system": "http://fhir.de/CodeSystem/dimdi/icd-10-gm",
          "version": "2021",
          "code": "C80.9"
        }, {
          "system": "http://snomed.info/sct",
          "code": "363346000"
        } ]
      },
      "subject": {
        "reference": "Patient/2fcc931a70f11d9018f4c9551b38cb2a9d313e0d984d6bb22096873c1e8494cb"
      },
      "encounter": {
        "reference": "Encounter/ddfebb2e3f246cfbf1c3a5ca5481eb35fb00278b178969f0f43965653d62e938"
      },
      "_recordedDate": {
        "extension": [ {
          "url": "http://hl7.org/fhir/StructureDefinition/data-absent-reason",
          "valueCode": "unknown"
        } ]
      }
    },
    "request": {
      "method": "POST",
      "url": "Condition",
      "ifNoneExist": "identifier=https://mein.krankenhaus.de/fhir/NamingSystem/conditionId|80e2d957f0058b915d6c0c8f3d3a7515c0d2c4e47ff3651b9b5ae85392eede2a"
    }
  }, {
    "fullUrl": "Condition/31a4d16de04914431faf18752230a119ce87ba06323673b70c23b51293a47cdf",
    "resource": {
      "resourceType": "Condition",
      "meta": {
        "profile": [ "https://www.netzwerk-universitaetsmedizin.de/fhir/StructureDefinition/chronic-neurological-mental-diseases" ]
      },
      "identifier": [ {
        "system": "https://mein.krankenhaus.de/fhir/NamingSystem/conditionId",
        "value": "8d5d78cf420a8e3d7ff0543fde8f0706d82a0790551e6a416a071d136827405c"
      } ],
      "clinicalStatus": {
        "coding": [ {
          "system": "http://terminology.hl7.org/CodeSystem/condition-clinical",
          "code": "active",
          "display": "Active"
        } ]
      },
      "verificationStatus": {
        "coding": [ {
          "system": "http://terminology.hl7.org/CodeSystem/condition-ver-status",
          "code": "confirmed",
          "display": "Confirmed"
        }, {
          "system": "http://snomed.info/sct",
          "code": "410605003",
          "display": "Confirmed present (qualifier value)"
        } ]
      },
      "category": [ {
        "coding": [ {
          "system": "http://snomed.info/sct",
          "code": "394591006",
          "display": "Neurology (qualifier value)"
        }, {
          "system": "http://snomed.info/sct",
          "code": "394587001",
          "display": "Psychiatry (qualifier value)"
        } ]
      } ],
      "code": {
        "coding": [ {
          "system": "http://fhir.de/CodeSystem/dimdi/icd-10-gm",
          "version": "2021",
          "code": "G20"
        }, {
          "system": "http://snomed.info/sct",
          "code": "49049000"
        } ]
      },
      "subject": {
        "reference": "Patient/2fcc931a70f11d9018f4c9551b38cb2a9d313e0d984d6bb22096873c1e8494cb"
      },
      "encounter": {
        "reference": "Encounter/ddfebb2e3f246cfbf1c3a5ca5481eb35fb00278b178969f0f43965653d62e938"
      },
      "_recordedDate": {
        "extension": [ {
          "url": "http://hl7.org/fhir/StructureDefinition/data-absent-reason",
          "valueCode": "unknown"
        } ]
      }
    },
    "request": {
      "method": "POST",
      "url": "Condition",
      "ifNoneExist": "identifier=https://mein.krankenhaus.de/fhir/NamingSystem/conditionId|31a4d16de04914431faf18752230a119ce87ba06323673b70c23b51293a47cdf"
    }
  }, {
    "fullUrl": "Condition/854e5df08d4f928866ed4205e85c4feef9db76b18a243a2e3d0dbaf1577cee43",
    "resource": {
      "resourceType": "Condition",
      "meta": {
        "profile": [ "https://www.netzwerk-universitaetsmedizin.de/fhir/StructureDefinition/chronic-neurological-mental-diseases" ]
      },
      "modifierExtension": [ {
        "url": "https://www.netzwerk-universitaetsmedizin.de/fhir/StructureDefinition/uncertainty-of-presence",
        "valueCodeableConcept": {
          "coding": [ {
            "system": "http://snomed.info/sct",
            "code": "261665006",
            "display": "Unknown (qualifier value)"
          } ],
          "text": "Presence unknown."
        }
      } ],
      "identifier": [ {
        "system": "https://mein.krankenhaus.de/fhir/NamingSystem/conditionId",
        "value": "da671123df5a5c058fcf750a4607b77ee14ce642c0ed36c76a23fdb8e651d022"
      } ],
      "category": [ {
        "coding": [ {
          "system": "http://snomed.info/sct",
          "code": "394591006",
          "display": "Neurology (qualifier value)"
        }, {
          "system": "http://snomed.info/sct",
          "code": "394587001",
          "display": "Psychiatry (qualifier value)"
        } ]
      } ],
      "code": {
        "coding": [ {
          "system": "http://fhir.de/CodeSystem/dimdi/icd-10-gm",
          "version": "2021",
          "code": "F03"
        }, {
          "system": "http://snomed.info/sct",
          "code": "52448006"
        } ]
      },
      "subject": {
        "reference": "Patient/2fcc931a70f11d9018f4c9551b38cb2a9d313e0d984d6bb22096873c1e8494cb"
      },
      "encounter": {
        "reference": "Encounter/ddfebb2e3f246cfbf1c3a5ca5481eb35fb00278b178969f0f43965653d62e938"
      },
      "_recordedDate": {
        "extension": [ {
          "url": "http://hl7.org/fhir/StructureDefinition/data-absent-reason",
          "valueCode": "unknown"
        } ]
      }
    },
    "request": {
      "method": "POST",
      "url": "Condition",
      "ifNoneExist": "identifier=https://mein.krankenhaus.de/fhir/NamingSystem/conditionId|854e5df08d4f928866ed4205e85c4feef9db76b18a243a2e3d0dbaf1577cee43"
    }
  }, {
    "fullUrl": "Condition/3603f59adabf84ed75c44e30fc9782391fa8141522bf0322b80db4b7572a69c9",
    "resource": {
      "resourceType": "Condition",
      "meta": {
        "profile": [ "https://www.netzwerk-universitaetsmedizin.de/fhir/StructureDefinition/chronic-neurological-mental-diseases" ]
      },
      "modifierExtension": [ {
        "url": "https://www.netzwerk-universitaetsmedizin.de/fhir/StructureDefinition/uncertainty-of-presence",
        "valueCodeableConcept": {
          "coding": [ {
            "system": "http://snomed.info/sct",
            "code": "261665006",
            "display": "Unknown (qualifier value)"
          } ],
          "text": "Presence unknown."
        }
      } ],
      "identifier": [ {
        "system": "https://mein.krankenhaus.de/fhir/NamingSystem/conditionId",
        "value": "5219de007b88ac0013e1286acc8bd3d6495b7ba9b00953f5058bc2e53b0280df"
      } ],
      "category": [ {
        "coding": [ {
          "system": "http://snomed.info/sct",
          "code": "394591006",
          "display": "Neurology (qualifier value)"
        }, {
          "system": "http://snomed.info/sct",
          "code": "394587001",
          "display": "Psychiatry (qualifier value)"
        } ]
      } ],
      "code": {
        "coding": [ {
          "system": "http://fhir.de/CodeSystem/dimdi/icd-10-gm",
          "version": "2021",
          "code": "G35"
        }, {
          "system": "http://snomed.info/sct",
          "code": "24700007"
        } ]
      },
      "subject": {
        "reference": "Patient/2fcc931a70f11d9018f4c9551b38cb2a9d313e0d984d6bb22096873c1e8494cb"
      },
      "encounter": {
        "reference": "Encounter/ddfebb2e3f246cfbf1c3a5ca5481eb35fb00278b178969f0f43965653d62e938"
      },
      "_recordedDate": {
        "extension": [ {
          "url": "http://hl7.org/fhir/StructureDefinition/data-absent-reason",
          "valueCode": "unknown"
        } ]
      }
    },
    "request": {
      "method": "POST",
      "url": "Condition",
      "ifNoneExist": "identifier=https://mein.krankenhaus.de/fhir/NamingSystem/conditionId|3603f59adabf84ed75c44e30fc9782391fa8141522bf0322b80db4b7572a69c9"
    }
  }, {
    "fullUrl": "Condition/79753d39f311dc309628a5a68ba43dc0c1f00b5c84c39748a2ab3a178b853a8d",
    "resource": {
      "resourceType": "Condition",
      "meta": {
        "profile": [ "https://www.netzwerk-universitaetsmedizin.de/fhir/StructureDefinition/chronic-neurological-mental-diseases" ]
      },
      "identifier": [ {
        "system": "https://mein.krankenhaus.de/fhir/NamingSystem/conditionId",
        "value": "6964c5cd8691c961a86a247958b5d1675806daf830f596cc06b61b161030ac42"
      } ],
      "clinicalStatus": {
        "coding": [ {
          "system": "http://terminology.hl7.org/CodeSystem/condition-clinical",
          "code": "active",
          "display": "Active"
        } ]
      },
      "verificationStatus": {
        "coding": [ {
          "system": "http://terminology.hl7.org/CodeSystem/condition-ver-status",
          "code": "confirmed",
          "display": "Confirmed"
        }, {
          "system": "http://snomed.info/sct",
          "code": "410605003",
          "display": "Confirmed present (qualifier value)"
        } ]
      },
      "category": [ {
        "coding": [ {
          "system": "http://snomed.info/sct",
          "code": "394591006",
          "display": "Neurology (qualifier value)"
        }, {
          "system": "http://snomed.info/sct",
          "code": "394587001",
          "display": "Psychiatry (qualifier value)"
        } ]
      } ],
      "code": {
        "coding": [ {
          "system": "http://fhir.de/CodeSystem/dimdi/icd-10-gm",
          "version": "2021",
          "code": "G70.9"
        }, {
          "system": "http://snomed.info/sct",
          "code": "257277002"
        } ]
      },
      "subject": {
        "reference": "Patient/2fcc931a70f11d9018f4c9551b38cb2a9d313e0d984d6bb22096873c1e8494cb"
      },
      "encounter": {
        "reference": "Encounter/ddfebb2e3f246cfbf1c3a5ca5481eb35fb00278b178969f0f43965653d62e938"
      },
      "_recordedDate": {
        "extension": [ {
          "url": "http://hl7.org/fhir/StructureDefinition/data-absent-reason",
          "valueCode": "unknown"
        } ]
      }
    },
    "request": {
      "method": "POST",
      "url": "Condition",
      "ifNoneExist": "identifier=https://mein.krankenhaus.de/fhir/NamingSystem/conditionId|79753d39f311dc309628a5a68ba43dc0c1f00b5c84c39748a2ab3a178b853a8d"
    }
  }, {
    "fullUrl": "Condition/eea88338514a06f78469cf0f36fe88e18b50992458fa4be825160d4c75630115",
    "resource": {
      "resourceType": "Condition",
      "meta": {
        "profile": [ "https://www.netzwerk-universitaetsmedizin.de/fhir/StructureDefinition/chronic-neurological-mental-diseases" ]
      },
      "identifier": [ {
        "system": "https://mein.krankenhaus.de/fhir/NamingSystem/conditionId",
        "value": "e43578d42cb6d9ab81ec85377b9a9620f478c833b0c00e96d34bd22e74a29f23"
      } ],
      "clinicalStatus": {
        "coding": [ {
          "system": "http://terminology.hl7.org/CodeSystem/condition-clinical",
          "code": "active",
          "display": "Active"
        } ]
      },
      "verificationStatus": {
        "coding": [ {
          "system": "http://terminology.hl7.org/CodeSystem/condition-ver-status",
          "code": "confirmed",
          "display": "Confirmed"
        }, {
          "system": "http://snomed.info/sct",
          "code": "410605003",
          "display": "Confirmed present (qualifier value)"
        } ]
      },
      "category": [ {
        "coding": [ {
          "system": "http://snomed.info/sct",
          "code": "394591006",
          "display": "Neurology (qualifier value)"
        }, {
          "system": "http://snomed.info/sct",
          "code": "394587001",
          "display": "Psychiatry (qualifier value)"
        } ]
      } ],
      "code": {
        "coding": [ {
          "system": "http://fhir.de/CodeSystem/dimdi/icd-10-gm",
          "version": "2021",
          "code": "G40.9"
        }, {
          "system": "http://snomed.info/sct",
          "code": "84757009"
        } ]
      },
      "subject": {
        "reference": "Patient/2fcc931a70f11d9018f4c9551b38cb2a9d313e0d984d6bb22096873c1e8494cb"
      },
      "encounter": {
        "reference": "Encounter/ddfebb2e3f246cfbf1c3a5ca5481eb35fb00278b178969f0f43965653d62e938"
      },
      "_recordedDate": {
        "extension": [ {
          "url": "http://hl7.org/fhir/StructureDefinition/data-absent-reason",
          "valueCode": "unknown"
        } ]
      }
    },
    "request": {
      "method": "POST",
      "url": "Condition",
      "ifNoneExist": "identifier=https://mein.krankenhaus.de/fhir/NamingSystem/conditionId|eea88338514a06f78469cf0f36fe88e18b50992458fa4be825160d4c75630115"
    }
  }, {
    "fullUrl": "Condition/177ea4ce45fbcde6680ab76d135cb09d18a2a16414ece3f808581ca83ed013c9",
    "resource": {
      "resourceType": "Condition",
      "meta": {
        "profile": [ "https://www.netzwerk-universitaetsmedizin.de/fhir/StructureDefinition/chronic-neurological-mental-diseases" ]
      },
      "identifier": [ {
        "system": "https://mein.krankenhaus.de/fhir/NamingSystem/conditionId",
        "value": "f49a71f68d0bc75679e954b9e700f2ee3e0c435d04737f69455a0e11829c456d"
      } ],
      "verificationStatus": {
        "coding": [ {
          "system": "http://terminology.hl7.org/CodeSystem/condition-ver-status",
          "code": "refuted",
          "display": "Refuted"
        }, {
          "system": "http://snomed.info/sct",
          "code": "410594000",
          "display": "Definitely NOT present (qualifier value)"
        } ]
      },
      "category": [ {
        "coding": [ {
          "system": "http://snomed.info/sct",
          "code": "394591006",
          "display": "Neurology (qualifier value)"
        }, {
          "system": "http://snomed.info/sct",
          "code": "394587001",
          "display": "Psychiatry (qualifier value)"
        } ]
      } ],
      "code": {
        "coding": [ {
          "system": "http://fhir.de/CodeSystem/dimdi/icd-10-gm",
          "version": "2021",
          "code": "G43.9"
        }, {
          "system": "http://snomed.info/sct",
          "code": "37796009"
        } ]
      },
      "subject": {
        "reference": "Patient/2fcc931a70f11d9018f4c9551b38cb2a9d313e0d984d6bb22096873c1e8494cb"
      },
      "encounter": {
        "reference": "Encounter/ddfebb2e3f246cfbf1c3a5ca5481eb35fb00278b178969f0f43965653d62e938"
      },
      "_recordedDate": {
        "extension": [ {
          "url": "http://hl7.org/fhir/StructureDefinition/data-absent-reason",
          "valueCode": "unknown"
        } ]
      }
    },
    "request": {
      "method": "POST",
      "url": "Condition",
      "ifNoneExist": "identifier=https://mein.krankenhaus.de/fhir/NamingSystem/conditionId|177ea4ce45fbcde6680ab76d135cb09d18a2a16414ece3f808581ca83ed013c9"
    }
  }, {
    "fullUrl": "Condition/84d1a83025c0a4ba6487641fa61b27b47351f8f7aa9adb2bab193135dbac7da5",
    "resource": {
      "resourceType": "Condition",
      "meta": {
        "profile": [ "https://www.netzwerk-universitaetsmedizin.de/fhir/StructureDefinition/chronic-neurological-mental-diseases" ]
      },
      "modifierExtension": [ {
        "url": "https://www.netzwerk-universitaetsmedizin.de/fhir/StructureDefinition/uncertainty-of-presence",
        "valueCodeableConcept": {
          "coding": [ {
            "system": "http://snomed.info/sct",
            "code": "261665006",
            "display": "Unknown (qualifier value)"
          } ],
          "text": "Presence unknown."
        }
      } ],
      "identifier": [ {
        "system": "https://mein.krankenhaus.de/fhir/NamingSystem/conditionId",
        "value": "cf42dd689ae42030f9de3ff27cdce48a53753213df8566fc402c8307cb215f38"
      } ],
      "category": [ {
        "coding": [ {
          "system": "http://snomed.info/sct",
          "code": "394591006",
          "display": "Neurology (qualifier value)"
        }, {
          "system": "http://snomed.info/sct",
          "code": "394587001",
          "display": "Psychiatry (qualifier value)"
        } ]
      } ],
      "code": {
        "coding": [ {
          "system": "http://fhir.de/CodeSystem/dimdi/icd-10-gm",
          "version": "2021",
          "code": "I69.4"
        }, {
          "system": "http://snomed.info/sct",
          "code": "440140008"
        } ]
      },
      "subject": {
        "reference": "Patient/2fcc931a70f11d9018f4c9551b38cb2a9d313e0d984d6bb22096873c1e8494cb"
      },
      "encounter": {
        "reference": "Encounter/ddfebb2e3f246cfbf1c3a5ca5481eb35fb00278b178969f0f43965653d62e938"
      },
      "_recordedDate": {
        "extension": [ {
          "url": "http://hl7.org/fhir/StructureDefinition/data-absent-reason",
          "valueCode": "unknown"
        } ]
      }
    },
    "request": {
      "method": "POST",
      "url": "Condition",
      "ifNoneExist": "identifier=https://mein.krankenhaus.de/fhir/NamingSystem/conditionId|84d1a83025c0a4ba6487641fa61b27b47351f8f7aa9adb2bab193135dbac7da5"
    }
  }, {
    "fullUrl": "Condition/80e340d20ad7e6eb2ef6a5a7695c3e5209aea2727e42375a3ad05a490aa07444",
    "resource": {
      "resourceType": "Condition",
      "meta": {
        "profile": [ "https://www.netzwerk-universitaetsmedizin.de/fhir/StructureDefinition/chronic-neurological-mental-diseases" ]
      },
      "identifier": [ {
        "system": "https://mein.krankenhaus.de/fhir/NamingSystem/conditionId",
        "value": "7cc40e1d8aaa73a47c5c4dad2f57251419b40c5bd12b9d0892d189dd7ce09f43"
      } ],
      "verificationStatus": {
        "coding": [ {
          "system": "http://terminology.hl7.org/CodeSystem/condition-ver-status",
          "code": "refuted",
          "display": "Refuted"
        }, {
          "system": "http://snomed.info/sct",
          "code": "410594000",
          "display": "Definitely NOT present (qualifier value)"
        } ]
      },
      "category": [ {
        "coding": [ {
          "system": "http://snomed.info/sct",
          "code": "394591006",
          "display": "Neurology (qualifier value)"
        }, {
          "system": "http://snomed.info/sct",
          "code": "394587001",
          "display": "Psychiatry (qualifier value)"
        } ]
      } ],
      "code": {
        "coding": [ {
          "system": "http://fhir.de/CodeSystem/dimdi/icd-10-gm",
          "version": "2021",
          "code": "Z86.7"
        }, {
          "system": "http://snomed.info/sct",
          "code": "429993008"
        } ]
      },
      "subject": {
        "reference": "Patient/2fcc931a70f11d9018f4c9551b38cb2a9d313e0d984d6bb22096873c1e8494cb"
      },
      "encounter": {
        "reference": "Encounter/ddfebb2e3f246cfbf1c3a5ca5481eb35fb00278b178969f0f43965653d62e938"
      },
      "_recordedDate": {
        "extension": [ {
          "url": "http://hl7.org/fhir/StructureDefinition/data-absent-reason",
          "valueCode": "unknown"
        } ]
      }
    },
    "request": {
      "method": "POST",
      "url": "Condition",
      "ifNoneExist": "identifier=https://mein.krankenhaus.de/fhir/NamingSystem/conditionId|80e340d20ad7e6eb2ef6a5a7695c3e5209aea2727e42375a3ad05a490aa07444"
    }
  }, {
    "fullUrl": "Condition/ebeb45f634d4f304ebe83020e6939a850d7533d1a5ed7a06aaf6bca33055a83f",
    "resource": {
      "resourceType": "Condition",
      "meta": {
        "profile": [ "https://www.netzwerk-universitaetsmedizin.de/fhir/StructureDefinition/chronic-neurological-mental-diseases" ]
      },
      "modifierExtension": [ {
        "url": "https://www.netzwerk-universitaetsmedizin.de/fhir/StructureDefinition/uncertainty-of-presence",
        "valueCodeableConcept": {
          "coding": [ {
            "system": "http://snomed.info/sct",
            "code": "261665006",
            "display": "Unknown (qualifier value)"
          } ],
          "text": "Presence unknown."
        }
      } ],
      "identifier": [ {
        "system": "https://mein.krankenhaus.de/fhir/NamingSystem/conditionId",
        "value": "5b1fa1468530fe44254eb830fea89b67a4138d3b27d42446b18be01565e59b1d"
      } ],
      "category": [ {
        "coding": [ {
          "system": "http://snomed.info/sct",
          "code": "394591006",
          "display": "Neurology (qualifier value)"
        }, {
          "system": "http://snomed.info/sct",
          "code": "394587001",
          "display": "Psychiatry (qualifier value)"
        } ]
      } ],
      "code": {
        "coding": [ {
          "system": "http://fhir.de/CodeSystem/dimdi/icd-10-gm",
          "version": "2021",
          "code": "F29"
        }, {
          "system": "http://snomed.info/sct",
          "code": "69322001"
        } ]
      },
      "subject": {
        "reference": "Patient/2fcc931a70f11d9018f4c9551b38cb2a9d313e0d984d6bb22096873c1e8494cb"
      },
      "encounter": {
        "reference": "Encounter/ddfebb2e3f246cfbf1c3a5ca5481eb35fb00278b178969f0f43965653d62e938"
      },
      "_recordedDate": {
        "extension": [ {
          "url": "http://hl7.org/fhir/StructureDefinition/data-absent-reason",
          "valueCode": "unknown"
        } ]
      }
    },
    "request": {
      "method": "POST",
      "url": "Condition",
      "ifNoneExist": "identifier=https://mein.krankenhaus.de/fhir/NamingSystem/conditionId|ebeb45f634d4f304ebe83020e6939a850d7533d1a5ed7a06aaf6bca33055a83f"
    }
  }, {
    "fullUrl": "Condition/c765fefa70faf5cdd07d6ab4854b66233d1c0c71fdfc19b79a1a167bb35453d3",
    "resource": {
      "resourceType": "Condition",
      "meta": {
        "profile": [ "https://www.netzwerk-universitaetsmedizin.de/fhir/StructureDefinition/chronic-neurological-mental-diseases" ]
      },
      "identifier": [ {
        "system": "https://mein.krankenhaus.de/fhir/NamingSystem/conditionId",
        "value": "beeb58581f88cd793f5767b8e010ee738b07688c8be743ffeafa8a3780616dd6"
      } ],
      "clinicalStatus": {
        "coding": [ {
          "system": "http://terminology.hl7.org/CodeSystem/condition-clinical",
          "code": "active",
          "display": "Active"
        } ]
      },
      "verificationStatus": {
        "coding": [ {
          "system": "http://terminology.hl7.org/CodeSystem/condition-ver-status",
          "code": "confirmed",
          "display": "Confirmed"
        }, {
          "system": "http://snomed.info/sct",
          "code": "410605003",
          "display": "Confirmed present (qualifier value)"
        } ]
      },
      "category": [ {
        "coding": [ {
          "system": "http://snomed.info/sct",
          "code": "394591006",
          "display": "Neurology (qualifier value)"
        }, {
          "system": "http://snomed.info/sct",
          "code": "394587001",
          "display": "Psychiatry (qualifier value)"
        } ]
      } ],
      "code": {
        "coding": [ {
          "system": "http://fhir.de/CodeSystem/dimdi/icd-10-gm",
          "version": "2021",
          "code": "F32.9"
        }, {
          "system": "http://snomed.info/sct",
          "code": "35489007"
        } ]
      },
      "subject": {
        "reference": "Patient/2fcc931a70f11d9018f4c9551b38cb2a9d313e0d984d6bb22096873c1e8494cb"
      },
      "encounter": {
        "reference": "Encounter/ddfebb2e3f246cfbf1c3a5ca5481eb35fb00278b178969f0f43965653d62e938"
      },
      "_recordedDate": {
        "extension": [ {
          "url": "http://hl7.org/fhir/StructureDefinition/data-absent-reason",
          "valueCode": "unknown"
        } ]
      }
    },
    "request": {
      "method": "POST",
      "url": "Condition",
      "ifNoneExist": "identifier=https://mein.krankenhaus.de/fhir/NamingSystem/conditionId|c765fefa70faf5cdd07d6ab4854b66233d1c0c71fdfc19b79a1a167bb35453d3"
    }
  }, {
    "fullUrl": "Condition/6855d7e3243ccd60eeee29ae482c94b88334af6028d0058309da545fcc01f87e",
    "resource": {
      "resourceType": "Condition",
      "meta": {
        "profile": [ "https://www.netzwerk-universitaetsmedizin.de/fhir/StructureDefinition/chronic-neurological-mental-diseases" ]
      },
      "identifier": [ {
        "system": "https://mein.krankenhaus.de/fhir/NamingSystem/conditionId",
        "value": "1e8fedd9a2728a4e2b4ab9a94e624e2063ed85d30ce35306f60280a8a560a766"
      } ],
      "clinicalStatus": {
        "coding": [ {
          "system": "http://terminology.hl7.org/CodeSystem/condition-clinical",
          "code": "active",
          "display": "Active"
        } ]
      },
      "verificationStatus": {
        "coding": [ {
          "system": "http://terminology.hl7.org/CodeSystem/condition-ver-status",
          "code": "confirmed",
          "display": "Confirmed"
        }, {
          "system": "http://snomed.info/sct",
          "code": "410605003",
          "display": "Confirmed present (qualifier value)"
        } ]
      },
      "category": [ {
        "coding": [ {
          "system": "http://snomed.info/sct",
          "code": "394591006",
          "display": "Neurology (qualifier value)"
        }, {
          "system": "http://snomed.info/sct",
          "code": "394587001",
          "display": "Psychiatry (qualifier value)"
        } ]
      } ],
      "code": {
        "coding": [ {
          "system": "http://fhir.de/CodeSystem/dimdi/icd-10-gm",
          "version": "2021",
          "code": "F41.9"
        }, {
          "system": "http://snomed.info/sct",
          "code": "197480006"
        } ]
      },
      "subject": {
        "reference": "Patient/2fcc931a70f11d9018f4c9551b38cb2a9d313e0d984d6bb22096873c1e8494cb"
      },
      "encounter": {
        "reference": "Encounter/ddfebb2e3f246cfbf1c3a5ca5481eb35fb00278b178969f0f43965653d62e938"
      },
      "_recordedDate": {
        "extension": [ {
          "url": "http://hl7.org/fhir/StructureDefinition/data-absent-reason",
          "valueCode": "unknown"
        } ]
      }
    },
    "request": {
      "method": "POST",
      "url": "Condition",
      "ifNoneExist": "identifier=https://mein.krankenhaus.de/fhir/NamingSystem/conditionId|6855d7e3243ccd60eeee29ae482c94b88334af6028d0058309da545fcc01f87e"
    }
  }, {
    "fullUrl": "Condition/d831a15002818293e1b9fefafb03222fa60de55284da8a94bc816b687e428000",
    "resource": {
      "resourceType": "Condition",
      "meta": {
        "profile": [ "https://www.netzwerk-universitaetsmedizin.de/fhir/StructureDefinition/chronic-kidney-diseases" ]
      },
      "identifier": [ {
        "system": "https://mein.krankenhaus.de/fhir/NamingSystem/conditionId",
        "value": "ceaf6e6113ce85e5b43c59571e6cfa41bdcba3bcff4a69a6d500935bdb911312"
      } ],
      "verificationStatus": {
        "coding": [ {
          "system": "http://terminology.hl7.org/CodeSystem/condition-ver-status",
          "code": "refuted",
          "display": "Refuted"
        }, {
          "system": "http://snomed.info/sct",
          "code": "410594000",
          "display": "Definitely NOT present (qualifier value)"
        } ]
      },
      "category": [ {
        "coding": [ {
          "system": "http://snomed.info/sct",
          "code": "394589003",
          "display": "Nephrology (qualifier value)"
        } ]
      } ],
      "code": {
        "coding": [ {
          "system": "http://fhir.de/CodeSystem/dimdi/icd-10-gm",
          "version": "2021",
          "code": "N18.9"
        }, {
          "system": "http://snomed.info/sct",
          "code": "709044004"
        } ]
      },
      "subject": {
        "reference": "Patient/2fcc931a70f11d9018f4c9551b38cb2a9d313e0d984d6bb22096873c1e8494cb"
      },
      "encounter": {
        "reference": "Encounter/ddfebb2e3f246cfbf1c3a5ca5481eb35fb00278b178969f0f43965653d62e938"
      },
      "_recordedDate": {
        "extension": [ {
          "url": "http://hl7.org/fhir/StructureDefinition/data-absent-reason",
          "valueCode": "unknown"
        } ]
      }
    },
    "request": {
      "method": "POST",
      "url": "Condition",
      "ifNoneExist": "identifier=https://mein.krankenhaus.de/fhir/NamingSystem/conditionId|d831a15002818293e1b9fefafb03222fa60de55284da8a94bc816b687e428000"
    }
  }, {
    "fullUrl": "Condition/0041ce4eeb4b1107bf18e3aa3f53f9a5962091869272868bb6f847a17c8b6def",
    "resource": {
      "resourceType": "Condition",
      "meta": {
        "profile": [ "https://www.netzwerk-universitaetsmedizin.de/fhir/StructureDefinition/gastrointestinal-ulcers" ]
      },
      "modifierExtension": [ {
        "url": "https://www.netzwerk-universitaetsmedizin.de/fhir/StructureDefinition/uncertainty-of-presence",
        "valueCodeableConcept": {
          "coding": [ {
            "system": "http://snomed.info/sct",
            "code": "261665006",
            "display": "Unknown (qualifier value)"
          } ],
          "text": "Presence unknown."
        }
      } ],
      "identifier": [ {
        "system": "https://mein.krankenhaus.de/fhir/NamingSystem/conditionId",
        "value": "cb4f0c2199ef6017a1632a4205c42dab1b9e443d9585b85dcf36e2ef4ee7ac16"
      } ],
      "category": [ {
        "coding": [ {
          "system": "http://snomed.info/sct",
          "code": "394584008",
          "display": "Gastroenterology (qualifier value))"
        } ]
      } ],
      "code": {
        "coding": [ {
          "system": "http://fhir.de/CodeSystem/dimdi/icd-10-gm",
          "version": "2021",
          "code": "K28"
        }, {
          "system": "http://snomed.info/sct",
          "code": "40845000"
        } ]
      },
      "subject": {
        "reference": "Patient/2fcc931a70f11d9018f4c9551b38cb2a9d313e0d984d6bb22096873c1e8494cb"
      },
      "encounter": {
        "reference": "Encounter/ddfebb2e3f246cfbf1c3a5ca5481eb35fb00278b178969f0f43965653d62e938"
      },
      "_recordedDate": {
        "extension": [ {
          "url": "http://hl7.org/fhir/StructureDefinition/data-absent-reason",
          "valueCode": "unknown"
        } ]
      }
    },
    "request": {
      "method": "POST",
      "url": "Condition",
      "ifNoneExist": "identifier=https://mein.krankenhaus.de/fhir/NamingSystem/conditionId|0041ce4eeb4b1107bf18e3aa3f53f9a5962091869272868bb6f847a17c8b6def"
    }
  }, {
    "fullUrl": "Observation/1a8774c5d7101baee15cba6cfeb647028bff2e60f71b2a6076d8adf0133476c8",
    "resource": {
      "resourceType": "Observation",
      "meta": {
        "profile": [ "https://www.netzwerk-universitaetsmedizin.de/fhir/StructureDefinition/smoking-status" ]
      },
      "identifier": [ {
        "system": "https://mein.krankenhaus.de/fhir/NamingSystem/observationId",
        "value": "77a2aa5117ed531b26566b51d57fa39efe93b4a824998148ebf81e77d95227b5"
      } ],
      "status": "final",
      "category": [ {
        "coding": [ {
          "system": "http://terminology.hl7.org/CodeSystem/observation-category",
          "code": "social-history",
          "display": "Social History"
        } ]
      } ],
      "code": {
        "coding": [ {
          "system": "http://loinc.org",
          "code": "72166-2"
        } ]
      },
      "subject": {
        "reference": "Patient/2fcc931a70f11d9018f4c9551b38cb2a9d313e0d984d6bb22096873c1e8494cb"
      },
      "encounter": {
        "reference": "Encounter/ddfebb2e3f246cfbf1c3a5ca5481eb35fb00278b178969f0f43965653d62e938"
      },
      "_effectiveDateTime": {
        "extension": [ {
          "url": "http://hl7.org/fhir/StructureDefinition/data-absent-reason",
          "valueCode": "unknown"
        } ]
      },
      "valueCodeableConcept": {
        "coding": [ {
          "system": "http://loinc.org",
          "code": "LA18978-9"
        } ]
      }
    },
    "request": {
      "method": "POST",
      "url": "Observation",
      "ifNoneExist": "identifier=https://mein.krankenhaus.de/fhir/NamingSystem/observationId|1a8774c5d7101baee15cba6cfeb647028bff2e60f71b2a6076d8adf0133476c8"
    }
  }, {
    "fullUrl": "Procedure/b701dd4e18b9e7daeaa6b975554e8d49ac126244b18f44be974d6bb0a151089d",
    "resource": {
      "resourceType": "Procedure",
      "meta": {
        "profile": [ "https://www.netzwerk-universitaetsmedizin.de/fhir/StructureDefinition/respiratory-therapies" ]
      },
      "identifier": [ {
        "system": "https://mein.krankenhaus.de/fhir/NamingSystem/procedureId",
        "value": "1c23caed2d98cf9729830142eb65eea0314f932919a7aec030a7fe13f9bcbdf8"
      } ],
      "status": "not-done",
      "category": {
        "coding": [ {
          "system": "http://snomed.info/sct",
          "code": "277132007",
          "display": "Therapeutic procedure (procedure)"
        } ]
      },
      "code": {
        "coding": [ {
          "system": "http://snomed.info/sct",
          "code": "53950000"
        } ]
      },
      "subject": {
        "reference": "Patient/2fcc931a70f11d9018f4c9551b38cb2a9d313e0d984d6bb22096873c1e8494cb"
      },
      "encounter": {
        "reference": "Encounter/ddfebb2e3f246cfbf1c3a5ca5481eb35fb00278b178969f0f43965653d62e938"
      },
      "_performedDateTime": {
        "extension": [ {
          "url": "http://hl7.org/fhir/StructureDefinition/data-absent-reason",
          "valueCode": "unknown"
        } ]
      }
    },
    "request": {
      "method": "POST",
      "url": "Procedure",
      "ifNoneExist": "identifier=https://mein.krankenhaus.de/fhir/NamingSystem/procedureId|b701dd4e18b9e7daeaa6b975554e8d49ac126244b18f44be974d6bb0a151089d"
    }
  }, {
    "fullUrl": "Immunization/30a1734927f16fc75f34d3705202725b19b8d9b4a61cf2759530408240d46a10",
    "resource": {
      "resourceType": "Immunization",
      "meta": {
        "profile": [ "https://www.netzwerk-universitaetsmedizin.de/fhir/StructureDefinition/immunization" ]
      },
      "identifier": [ {
        "system": "https://mein.krankenhaus.de/fhir/NamingSystem/immunizationId",
        "value": "6430d3bcd8b5e0954f061842f8e7b1543da2697a46f3fc800def8d64109fd38f"
      } ],
      "status": "completed",
      "vaccineCode": {
        "coding": [ {
          "system": "http://snomed.info/sct",
          "code": "836402002"
        } ]
      },
      "patient": {
        "reference": "Patient/2fcc931a70f11d9018f4c9551b38cb2a9d313e0d984d6bb22096873c1e8494cb"
      },
      "encounter": {
        "reference": "Encounter/ddfebb2e3f246cfbf1c3a5ca5481eb35fb00278b178969f0f43965653d62e938"
      },
      "occurrenceDateTime": "2020-12-03",
      "protocolApplied": [ {
        "targetDisease": [ {
          "coding": [ {
            "system": "http://snomed.info/sct",
            "code": "56717001"
          } ]
        } ],
        "_doseNumberString": {
          "extension": [ {
            "url": "http://hl7.org/fhir/StructureDefinition/data-absent-reason",
            "valueCode": "unknown"
          } ]
        }
      } ]
    },
    "request": {
      "method": "POST",
      "url": "Immunization",
      "ifNoneExist": "identifier=https://mein.krankenhaus.de/fhir/NamingSystem/immunizationId|30a1734927f16fc75f34d3705202725b19b8d9b4a61cf2759530408240d46a10"
    }
  }, {
    "fullUrl": "Immunization/88560ccab043dd1903c203137aa2901c63e4e07534d1702a05fd916a6953352a",
    "resource": {
      "resourceType": "Immunization",
      "meta": {
        "profile": [ "https://www.netzwerk-universitaetsmedizin.de/fhir/StructureDefinition/immunization" ]
      },
      "identifier": [ {
        "system": "https://mein.krankenhaus.de/fhir/NamingSystem/immunizationId",
        "value": "7d7e9b59ae21274cd6d072086a340dd1df29e3ab10882c5b027338817b071a65"
      } ],
      "status": "completed",
      "vaccineCode": {
        "coding": [ {
          "system": "http://snomed.info/sct",
          "code": "1119349007"
        } ]
      },
      "patient": {
        "reference": "Patient/2fcc931a70f11d9018f4c9551b38cb2a9d313e0d984d6bb22096873c1e8494cb"
      },
      "encounter": {
        "reference": "Encounter/ddfebb2e3f246cfbf1c3a5ca5481eb35fb00278b178969f0f43965653d62e938"
      },
      "occurrenceDateTime": "2020-05-07",
      "protocolApplied": [ {
        "targetDisease": [ {
          "coding": [ {
            "system": "http://snomed.info/sct",
            "code": "840539006"
          } ]
        } ],
        "_doseNumberString": {
          "extension": [ {
            "url": "http://hl7.org/fhir/StructureDefinition/data-absent-reason",
            "valueCode": "unknown"
          } ]
        }
      } ]
    },
    "request": {
      "method": "POST",
      "url": "Immunization",
      "ifNoneExist": "identifier=https://mein.krankenhaus.de/fhir/NamingSystem/immunizationId|88560ccab043dd1903c203137aa2901c63e4e07534d1702a05fd916a6953352a"
    }
  }, {
    "fullUrl": "Immunization/d71a6672713e4f569e1cbefa17b6f067d55923e037fdd5afd8baa525ab35161a",
    "resource": {
      "resourceType": "Immunization",
      "meta": {
        "profile": [ "https://www.netzwerk-universitaetsmedizin.de/fhir/StructureDefinition/immunization" ]
      },
      "identifier": [ {
        "system": "https://mein.krankenhaus.de/fhir/NamingSystem/immunizationId",
        "value": "cfd4aa7771beacd73e2f995570e1136ab809cedba058c5d8fc26fcaf61fbecd8"
      } ],
      "status": "not-done",
      "vaccineCode": {
        "coding": [ {
          "system": "http://hl7.org/fhir/uv/ips/CodeSystem/absent-unknown-uv-ips",
          "code": "no-known-immunizations",
          "display": "vaccineCode unknown"
        } ]
      },
      "patient": {
        "reference": "Patient/2fcc931a70f11d9018f4c9551b38cb2a9d313e0d984d6bb22096873c1e8494cb"
      },
      "encounter": {
        "reference": "Encounter/ddfebb2e3f246cfbf1c3a5ca5481eb35fb00278b178969f0f43965653d62e938"
      },
      "_occurrenceDateTime": {
        "extension": [ {
          "url": "http://hl7.org/fhir/StructureDefinition/data-absent-reason",
          "valueCode": "unknown"
        } ]
      },
      "protocolApplied": [ {
        "targetDisease": [ {
          "coding": [ {
            "system": "http://snomed.info/sct",
            "code": "64572001",
            "display": "targetDisease unknown"
          } ]
        } ],
        "_doseNumberString": {
          "extension": [ {
            "url": "http://hl7.org/fhir/StructureDefinition/data-absent-reason",
            "valueCode": "unknown"
          } ]
        }
      } ]
    },
    "request": {
      "method": "POST",
      "url": "Immunization",
      "ifNoneExist": "identifier=https://mein.krankenhaus.de/fhir/NamingSystem/immunizationId|d71a6672713e4f569e1cbefa17b6f067d55923e037fdd5afd8baa525ab35161a"
    }
  }, {
    "fullUrl": "Consent/f7d276f83ba53f55986ed8558b2c6410e53669662130646d10aae2af396b93ca",
    "resource": {
      "resourceType": "Consent",
      "meta": {
        "profile": [ "https://www.netzwerk-universitaetsmedizin.de/fhir/StructureDefinition/do-not-resuscitate-order" ]
      },
      "identifier": [ {
        "system": "https://mein.krankenhaus.de/fhir/NamingSystem/consentId",
        "value": "2f8d9d707054cab8c4fe3908a85e6c238af7392ee5f2cc5de93b4a0e4f56a037"
      } ],
      "status": "active",
      "scope": {
        "coding": [ {
          "system": "http://terminology.hl7.org/CodeSystem/consentscope",
          "code": "adr",
          "display": "Advanced Care Directive"
        } ]
      },
      "category": [ {
        "coding": [ {
          "system": "http://terminology.hl7.org/CodeSystem/consentcategorycodes",
          "code": "dnr",
          "display": "Do Not Resuscitate"
        } ]
      } ],
      "patient": {
        "reference": "Patient/2fcc931a70f11d9018f4c9551b38cb2a9d313e0d984d6bb22096873c1e8494cb"
      },
      "policy": [ {
        "uri": "https://www.aerzteblatt.de/archiv/65440/DNR-Anordnungen-Das-fehlende-Bindeglied"
      } ],
      "provision": {
        "code": [ {
          "coding": [ {
            "system": "http://snomed.info/sct",
            "code": "261665006"
          } ]
        } ]
      }
    },
    "request": {
      "method": "POST",
      "url": "Consent",
      "ifNoneExist": "identifier=https://mein.krankenhaus.de/fhir/NamingSystem/consentId|f7d276f83ba53f55986ed8558b2c6410e53669662130646d10aae2af396b93ca"
    }
  }, {
    "fullUrl": "Observation/8f707ffd4cea3acd6e62567b770053f4c5963aae2f2d9dae03947ae879295054",
    "resource": {
      "resourceType": "Observation",
      "meta": {
        "profile": [ "https://www.netzwerk-universitaetsmedizin.de/fhir/StructureDefinition/sex-assigned-at-birth" ]
      },
      "identifier": [ {
        "system": "https://mein.krankenhaus.de/fhir/NamingSystem/observationId",
        "value": "f6fec187e0a55dec8622d1c91efab51b0781886d5b1c4c503778d883d463321c"
      } ],
      "status": "final",
      "category": [ {
        "coding": [ {
          "system": "http://terminology.hl7.org/CodeSystem/observation-category",
          "code": "social-history",
          "display": "Social History"
        } ]
      } ],
      "code": {
        "coding": [ {
          "system": "http://loinc.org",
          "code": "76689-9"
        } ]
      },
      "subject": {
        "reference": "Patient/2fcc931a70f11d9018f4c9551b38cb2a9d313e0d984d6bb22096873c1e8494cb"
      },
      "encounter": {
        "reference": "Encounter/ddfebb2e3f246cfbf1c3a5ca5481eb35fb00278b178969f0f43965653d62e938"
      },
      "_effectiveDateTime": {
        "extension": [ {
          "url": "http://hl7.org/fhir/StructureDefinition/data-absent-reason",
          "valueCode": "unknown"
        } ]
      },
      "valueCodeableConcept": {
        "coding": [ {
          "system": "http://hl7.org/fhir/administrative-gender",
          "code": "unknown"
        } ]
      }
    },
    "request": {
      "method": "POST",
      "url": "Observation",
      "ifNoneExist": "identifier=https://mein.krankenhaus.de/fhir/NamingSystem/observationId|8f707ffd4cea3acd6e62567b770053f4c5963aae2f2d9dae03947ae879295054"
    }
  }, {
    "fullUrl": "Observation/e87b9a8a8ab4fc5a622f8f6fd4f9e0bf52caee1dfa1c14797dfaedca283a20e6",
    "resource": {
      "resourceType": "Observation",
      "meta": {
        "profile": [ "https://www.netzwerk-universitaetsmedizin.de/fhir/StructureDefinition/frailty-score" ]
      },
      "identifier": [ {
        "type": {
          "coding": [ {
            "system": "http://terminology.hl7.org/CodeSystem/v2-0203",
            "code": "OBI",
            "display": "Observation Instance Identifier"
          } ]
        },
        "system": "https://mein.krankenhaus.de/fhir/NamingSystem/observationId",
        "value": "97f84966643c9531dd4518b05976ea3cde7dde3e537abf0142b95e6d22224a0e",
        "assigner": {
          "reference": "Organization/3a4f3433bce81181bad2d8e0b8fafccf7dc800bc06f29be73dcb38b750a48f9a"
        }
      } ],
      "status": "final",
      "category": [ {
        "coding": [ {
          "system": "http://terminology.hl7.org/CodeSystem/observation-category",
          "code": "survey",
          "display": "Survey"
        } ]
      } ],
      "code": {
        "coding": [ {
          "system": "http://snomed.info/sct",
          "code": "763264000"
        } ],
        "text": "Frailty Scale Score"
      },
      "subject": {
        "reference": "Patient/2fcc931a70f11d9018f4c9551b38cb2a9d313e0d984d6bb22096873c1e8494cb"
      },
      "encounter": {
        "reference": "Encounter/ddfebb2e3f246cfbf1c3a5ca5481eb35fb00278b178969f0f43965653d62e938"
      },
      "_effectiveDateTime": {
        "extension": [ {
          "url": "http://hl7.org/fhir/StructureDefinition/data-absent-reason",
          "valueCode": "unknown"
        } ]
      },
      "valueCodeableConcept": {
        "coding": [ {
          "system": "https://www.netzwerk-universitaetsmedizin.de/fhir/CodeSystem/frailty-score",
          "code": "9"
        } ]
      },
      "method": {
        "coding": [ {
          "system": "http://snomed.info/sct",
          "code": "445414007",
          "display": "Canadian Study of Health and Aging clinical frailty scale"
        } ]
      }
    },
    "request": {
      "method": "POST",
      "url": "Observation",
      "ifNoneExist": "identifier=https://mein.krankenhaus.de/fhir/NamingSystem/observationId|e87b9a8a8ab4fc5a622f8f6fd4f9e0bf52caee1dfa1c14797dfaedca283a20e6"
    }
  }, {
    "fullUrl": "Observation/b7b184036f4dd822177212ae32b2b561c0e1e4f273282c84006aa5465619581b",
    "resource": {
      "resourceType": "Observation",
      "meta": {
        "profile": [ "https://www.netzwerk-universitaetsmedizin.de/fhir/StructureDefinition/body-weight" ]
      },
      "identifier": [ {
        "type": {
          "coding": [ {
            "system": "http://terminology.hl7.org/CodeSystem/v2-0203",
            "code": "OBI",
            "display": "Observation Instance Identifier"
          } ]
        },
        "system": "https://mein.krankenhaus.de/fhir/NamingSystem/observationId",
        "value": "6cce4f755539d31d54a454c2df3e567ad15f67047feb82dbb37f74c8eb3e5d1d",
        "assigner": {
          "reference": "Organization/3a4f3433bce81181bad2d8e0b8fafccf7dc800bc06f29be73dcb38b750a48f9a"
        }
      } ],
      "status": "final",
      "category": [ {
        "coding": [ {
          "system": "http://terminology.hl7.org/CodeSystem/observation-category",
          "code": "vital-signs",
          "display": "Vital Signs"
        } ]
      } ],
      "code": {
        "coding": [ {
          "system": "http://loinc.org",
          "code": "29463-7"
        }, {
          "system": "http://snomed.info/sct",
          "code": "27113001"
        } ],
        "text": "Body Weight"
      },
      "subject": {
        "reference": "Patient/2fcc931a70f11d9018f4c9551b38cb2a9d313e0d984d6bb22096873c1e8494cb"
      },
      "encounter": {
        "reference": "Encounter/ddfebb2e3f246cfbf1c3a5ca5481eb35fb00278b178969f0f43965653d62e938"
      },
      "_effectiveDateTime": {
        "extension": [ {
          "url": "http://hl7.org/fhir/StructureDefinition/data-absent-reason",
          "valueCode": "unknown"
        } ]
      },
      "valueQuantity": {
        "value": 126,
        "unit": "kilogram",
        "system": "http://unitsofmeasure.org",
        "code": "kg"
      }
    },
    "request": {
      "method": "POST",
      "url": "Observation",
      "ifNoneExist": "identifier=https://mein.krankenhaus.de/fhir/NamingSystem/observationId|b7b184036f4dd822177212ae32b2b561c0e1e4f273282c84006aa5465619581b"
    }
  }, {
    "fullUrl": "Observation/38c4e9e14f7a5dedc934e1b9e1de4c11326c86e5e385eeb288921d6961b41bed",
    "resource": {
      "resourceType": "Observation",
      "meta": {
        "profile": [ "https://www.netzwerk-universitaetsmedizin.de/fhir/StructureDefinition/body-height" ]
      },
      "identifier": [ {
        "type": {
          "coding": [ {
            "system": "http://terminology.hl7.org/CodeSystem/v2-0203",
            "code": "OBI",
            "display": "Observation Instance Identifier"
          } ]
        },
        "system": "https://mein.krankenhaus.de/fhir/NamingSystem/observationId",
        "value": "0738526baae8fde7728a76e9e34cb2a2c520f9abadb0c8ea1ad1bb06c72e0b91",
        "assigner": {
          "reference": "Organization/3a4f3433bce81181bad2d8e0b8fafccf7dc800bc06f29be73dcb38b750a48f9a"
        }
      } ],
      "status": "final",
      "category": [ {
        "coding": [ {
          "system": "http://terminology.hl7.org/CodeSystem/observation-category",
          "code": "vital-signs",
          "display": "Vital Signs"
        } ]
      } ],
      "code": {
        "coding": [ {
          "system": "http://loinc.org",
          "code": "8302-2"
        }, {
          "system": "http://snomed.info/sct",
          "code": "50373000"
        } ],
        "text": "Body height"
      },
      "subject": {
        "reference": "Patient/2fcc931a70f11d9018f4c9551b38cb2a9d313e0d984d6bb22096873c1e8494cb"
      },
      "encounter": {
        "reference": "Encounter/ddfebb2e3f246cfbf1c3a5ca5481eb35fb00278b178969f0f43965653d62e938"
      },
      "_effectiveDateTime": {
        "extension": [ {
          "url": "http://hl7.org/fhir/StructureDefinition/data-absent-reason",
          "valueCode": "unknown"
        } ]
      },
      "valueQuantity": {
        "value": 160,
        "unit": "centimeter",
        "system": "http://unitsofmeasure.org",
        "code": "cm"
      }
    },
    "request": {
      "method": "POST",
      "url": "Observation",
      "ifNoneExist": "identifier=https://mein.krankenhaus.de/fhir/NamingSystem/observationId|38c4e9e14f7a5dedc934e1b9e1de4c11326c86e5e385eeb288921d6961b41bed"
    }
  }, {
    "fullUrl": "Observation/af676366cc92941f6917354bdc84e883abe8a5eed3d3b8081e9c2624fa4e051b",
    "resource": {
      "resourceType": "Observation",
      "meta": {
        "profile": [ "https://www.netzwerk-universitaetsmedizin.de/fhir/StructureDefinition/known-exposure" ]
      },
      "identifier": [ {
        "type": {
          "coding": [ {
            "system": "http://terminology.hl7.org/CodeSystem/v2-0203",
            "code": "OBI",
            "display": "Observation Instance Identifier"
          } ]
        },
        "system": "https://mein.krankenhaus.de/fhir/NamingSystem/observationId",
        "value": "5efd69f03363118511eea042bc555245356d2f947628ab6ec96aed228acb4cc2",
        "assigner": {
          "reference": "Organization/3a4f3433bce81181bad2d8e0b8fafccf7dc800bc06f29be73dcb38b750a48f9a"
        }
      } ],
      "status": "final",
      "category": [ {
        "coding": [ {
          "system": "http://terminology.hl7.org/CodeSystem/observation-category",
          "code": "social-history",
          "display": "Social History"
        } ]
      } ],
      "code": {
        "coding": [ {
          "system": "http://loinc.org",
          "code": "88636-6"
        } ],
        "text": "Known exposure"
      },
      "subject": {
        "reference": "Patient/2fcc931a70f11d9018f4c9551b38cb2a9d313e0d984d6bb22096873c1e8494cb"
      },
      "encounter": {
        "reference": "Encounter/ddfebb2e3f246cfbf1c3a5ca5481eb35fb00278b178969f0f43965653d62e938"
      },
      "_effectiveDateTime": {
        "extension": [ {
          "url": "http://hl7.org/fhir/StructureDefinition/data-absent-reason",
          "valueCode": "unknown"
        } ]
      },
      "valueCodeableConcept": {
        "coding": [ {
          "system": "http://snomed.info/sct",
          "code": "373067005"
        } ]
      }
    },
    "request": {
      "method": "POST",
      "url": "Observation",
      "ifNoneExist": "identifier=https://mein.krankenhaus.de/fhir/NamingSystem/observationId|af676366cc92941f6917354bdc84e883abe8a5eed3d3b8081e9c2624fa4e051b"
    }
  }, {
    "fullUrl": "Condition/be330e233d15eba3786240e792a5a8ef17c64fd15ddc85563ee0b2f60ef838ca",
    "resource": {
      "resourceType": "Condition",
      "meta": {
        "profile": [ "https://www.netzwerk-universitaetsmedizin.de/fhir/StructureDefinition/complications-covid-19" ]
      },
      "modifierExtension": [ {
        "url": "https://www.netzwerk-universitaetsmedizin.de/fhir/StructureDefinition/uncertainty-of-presence",
        "valueCodeableConcept": {
          "coding": [ {
            "system": "http://snomed.info/sct",
            "code": "261665006",
            "display": "Unknown (qualifier value)"
          } ],
          "text": "Presence unknown."
        }
      } ],
      "identifier": [ {
        "system": "https://mein.krankenhaus.de/fhir/NamingSystem/conditionId",
        "value": "33a7945e2eec42e83bbcc00beb206e0f898c7bcf6f8ce9c5062fca4edd597d0f"
      } ],
      "category": [ {
        "coding": [ {
          "system": "http://snomed.info/sct",
          "code": "116223007"
        } ]
      } ],
      "code": {
        "coding": [ {
          "system": "http://fhir.de/CodeSystem/dimdi/icd-10-gm",
          "version": "2021",
          "code": "J18.9"
        }, {
          "system": "http://snomed.info/sct",
          "code": "128601007"
        } ]
      },
      "subject": {
        "reference": "Patient/2fcc931a70f11d9018f4c9551b38cb2a9d313e0d984d6bb22096873c1e8494cb"
      },
      "encounter": {
        "reference": "Encounter/ddfebb2e3f246cfbf1c3a5ca5481eb35fb00278b178969f0f43965653d62e938"
      },
      "_recordedDate": {
        "extension": [ {
          "url": "http://hl7.org/fhir/StructureDefinition/data-absent-reason",
          "valueCode": "unknown"
        } ]
      }
    },
    "request": {
      "method": "POST",
      "url": "Condition",
      "ifNoneExist": "identifier=https://mein.krankenhaus.de/fhir/NamingSystem/conditionId|be330e233d15eba3786240e792a5a8ef17c64fd15ddc85563ee0b2f60ef838ca"
    }
  }, {
    "fullUrl": "Condition/b731c17a241e822503faf1623a793b1de1cca1cd0e14aaf71c18352e74835a64",
    "resource": {
      "resourceType": "Condition",
      "meta": {
        "profile": [ "https://www.netzwerk-universitaetsmedizin.de/fhir/StructureDefinition/complications-covid-19" ]
      },
      "modifierExtension": [ {
        "url": "https://www.netzwerk-universitaetsmedizin.de/fhir/StructureDefinition/uncertainty-of-presence",
        "valueCodeableConcept": {
          "coding": [ {
            "system": "http://snomed.info/sct",
            "code": "261665006",
            "display": "Unknown (qualifier value)"
          } ],
          "text": "Presence unknown."
        }
      } ],
      "identifier": [ {
        "system": "https://mein.krankenhaus.de/fhir/NamingSystem/conditionId",
        "value": "25207fc1fbb84b2dbd6c5ed94459bd7e93d8eeb2ef9ae136e97ed2e828dabd20"
      } ],
      "category": [ {
        "coding": [ {
          "system": "http://snomed.info/sct",
          "code": "116223007"
        } ]
      } ],
      "code": {
        "coding": [ {
          "system": "http://fhir.de/CodeSystem/dimdi/icd-10-gm",
          "version": "2021",
          "code": "A41.9"
        }, {
          "system": "http://snomed.info/sct",
          "code": "434156008"
        } ]
      },
      "subject": {
        "reference": "Patient/2fcc931a70f11d9018f4c9551b38cb2a9d313e0d984d6bb22096873c1e8494cb"
      },
      "encounter": {
        "reference": "Encounter/ddfebb2e3f246cfbf1c3a5ca5481eb35fb00278b178969f0f43965653d62e938"
      },
      "_recordedDate": {
        "extension": [ {
          "url": "http://hl7.org/fhir/StructureDefinition/data-absent-reason",
          "valueCode": "unknown"
        } ]
      }
    },
    "request": {
      "method": "POST",
      "url": "Condition",
      "ifNoneExist": "identifier=https://mein.krankenhaus.de/fhir/NamingSystem/conditionId|b731c17a241e822503faf1623a793b1de1cca1cd0e14aaf71c18352e74835a64"
    }
  }, {
    "fullUrl": "Condition/34426ba252843c889b3ba78df92faf7aef394240f9ec0a9f00eb10a82c62e29c",
    "resource": {
      "resourceType": "Condition",
      "meta": {
        "profile": [ "https://www.netzwerk-universitaetsmedizin.de/fhir/StructureDefinition/symptoms-covid-19" ]
      },
      "modifierExtension": [ {
        "url": "https://www.netzwerk-universitaetsmedizin.de/fhir/StructureDefinition/uncertainty-of-presence",
        "valueCodeableConcept": {
          "coding": [ {
            "system": "http://snomed.info/sct",
            "code": "261665006",
            "display": "Unknown (qualifier value)"
          } ],
          "text": "Presence unknown."
        }
      } ],
      "identifier": [ {
        "system": "https://mein.krankenhaus.de/fhir/NamingSystem/conditionId",
        "value": "17338c531c9fca355a2754810723f40e08e0318a398505875acc73cf6734dbbd"
      } ],
      "clinicalStatus": {
        "coding": [ {
          "system": "http://terminology.hl7.org/CodeSystem/condition-clinical",
          "code": "active",
          "display": "Active"
        } ]
      },
      "category": [ {
        "coding": [ {
          "system": "http://loinc.org",
          "code": "75325-1"
        } ]
      } ],
      "code": {
        "coding": [ {
          "system": "http://snomed.info/sct",
          "code": "21522001"
        } ]
      },
      "subject": {
        "reference": "Patient/2fcc931a70f11d9018f4c9551b38cb2a9d313e0d984d6bb22096873c1e8494cb"
      },
      "encounter": {
        "reference": "Encounter/ddfebb2e3f246cfbf1c3a5ca5481eb35fb00278b178969f0f43965653d62e938"
      },
      "_recordedDate": {
        "extension": [ {
          "url": "http://hl7.org/fhir/StructureDefinition/data-absent-reason",
          "valueCode": "unknown"
        } ]
      }
    },
    "request": {
      "method": "POST",
      "url": "Condition",
      "ifNoneExist": "identifier=https://mein.krankenhaus.de/fhir/NamingSystem/conditionId|34426ba252843c889b3ba78df92faf7aef394240f9ec0a9f00eb10a82c62e29c"
    }
  }, {
    "fullUrl": "Condition/98b98728f8f0add53e969a5bf4f29b5580a8e0624c41119b26c44a819fd368ad",
    "resource": {
      "resourceType": "Condition",
      "meta": {
        "profile": [ "https://www.netzwerk-universitaetsmedizin.de/fhir/StructureDefinition/symptoms-covid-19" ]
      },
      "identifier": [ {
        "system": "https://mein.krankenhaus.de/fhir/NamingSystem/conditionId",
        "value": "37f06cb5952a1c9ca1889d541f15c301ca43101e8ccf3360ec1b62a254b6b5de"
      } ],
      "clinicalStatus": {
        "coding": [ {
          "system": "http://terminology.hl7.org/CodeSystem/condition-clinical",
          "code": "active",
          "display": "Active"
        } ]
      },
      "verificationStatus": {
        "coding": [ {
          "system": "http://terminology.hl7.org/CodeSystem/condition-ver-status",
          "code": "refuted",
          "display": "Refuted"
        }, {
          "system": "http://snomed.info/sct",
          "code": "410594000",
          "display": "Definitely NOT present (qualifier value)"
        } ]
      },
      "category": [ {
        "coding": [ {
          "system": "http://loinc.org",
          "code": "75325-1"
        } ]
      } ],
      "code": {
        "coding": [ {
          "system": "http://snomed.info/sct",
          "code": "40917007"
        } ]
      },
      "subject": {
        "reference": "Patient/2fcc931a70f11d9018f4c9551b38cb2a9d313e0d984d6bb22096873c1e8494cb"
      },
      "encounter": {
        "reference": "Encounter/ddfebb2e3f246cfbf1c3a5ca5481eb35fb00278b178969f0f43965653d62e938"
      },
      "_recordedDate": {
        "extension": [ {
          "url": "http://hl7.org/fhir/StructureDefinition/data-absent-reason",
          "valueCode": "unknown"
        } ]
      }
    },
    "request": {
      "method": "POST",
      "url": "Condition",
      "ifNoneExist": "identifier=https://mein.krankenhaus.de/fhir/NamingSystem/conditionId|98b98728f8f0add53e969a5bf4f29b5580a8e0624c41119b26c44a819fd368ad"
    }
  }, {
    "fullUrl": "Condition/76b6aa6fb78b205df4515f2be2b25555895caf07f14d381f36672b5e4dbc8c60",
    "resource": {
      "resourceType": "Condition",
      "meta": {
        "profile": [ "https://www.netzwerk-universitaetsmedizin.de/fhir/StructureDefinition/symptoms-covid-19" ]
      },
      "identifier": [ {
        "system": "https://mein.krankenhaus.de/fhir/NamingSystem/conditionId",
        "value": "ae3084f3cf12b51981f8a21a9edc8f24a55be8184c064e586341347959024f78"
      } ],
      "clinicalStatus": {
        "coding": [ {
          "system": "http://terminology.hl7.org/CodeSystem/condition-clinical",
          "code": "active",
          "display": "Active"
        } ]
      },
      "verificationStatus": {
        "coding": [ {
          "system": "http://terminology.hl7.org/CodeSystem/condition-ver-status",
          "code": "refuted",
          "display": "Refuted"
        }, {
          "system": "http://snomed.info/sct",
          "code": "410594000",
          "display": "Definitely NOT present (qualifier value)"
        } ]
      },
      "category": [ {
        "coding": [ {
          "system": "http://loinc.org",
          "code": "75325-1"
        } ]
      } ],
      "code": {
        "coding": [ {
          "system": "http://snomed.info/sct",
          "code": "62315008"
        } ]
      },
      "subject": {
        "reference": "Patient/2fcc931a70f11d9018f4c9551b38cb2a9d313e0d984d6bb22096873c1e8494cb"
      },
      "encounter": {
        "reference": "Encounter/ddfebb2e3f246cfbf1c3a5ca5481eb35fb00278b178969f0f43965653d62e938"
      },
      "_recordedDate": {
        "extension": [ {
          "url": "http://hl7.org/fhir/StructureDefinition/data-absent-reason",
          "valueCode": "unknown"
        } ]
      }
    },
    "request": {
      "method": "POST",
      "url": "Condition",
      "ifNoneExist": "identifier=https://mein.krankenhaus.de/fhir/NamingSystem/conditionId|76b6aa6fb78b205df4515f2be2b25555895caf07f14d381f36672b5e4dbc8c60"
    }
  }, {
    "fullUrl": "Condition/f0ed9bc81b5f7fff8d1df0907394ea8bc20bc35e40afca267bbcb7c5c58ec848",
    "resource": {
      "resourceType": "Condition",
      "meta": {
        "profile": [ "https://www.netzwerk-universitaetsmedizin.de/fhir/StructureDefinition/symptoms-covid-19" ]
      },
      "identifier": [ {
        "system": "https://mein.krankenhaus.de/fhir/NamingSystem/conditionId",
        "value": "4f432c82bf80fb2062d45fa6caa86f7812145d8e8f2a44fe6dd1b3d32362320c"
      } ],
      "clinicalStatus": {
        "coding": [ {
          "system": "http://terminology.hl7.org/CodeSystem/condition-clinical",
          "code": "active",
          "display": "Active"
        } ]
      },
      "verificationStatus": {
        "coding": [ {
          "system": "http://terminology.hl7.org/CodeSystem/condition-ver-status",
          "code": "confirmed",
          "display": "Confirmed"
        }, {
          "system": "http://snomed.info/sct",
          "code": "410605003",
          "display": "Confirmed present (qualifier value)"
        } ]
      },
      "category": [ {
        "coding": [ {
          "system": "http://loinc.org",
          "code": "75325-1"
        } ]
      } ],
      "severity": {
        "coding": [ {
          "system": "http://snomed.info/sct",
          "code": "6736007"
        } ]
      },
      "code": {
        "coding": [ {
          "system": "http://snomed.info/sct",
          "code": "422400008"
        } ]
      },
      "subject": {
        "reference": "Patient/2fcc931a70f11d9018f4c9551b38cb2a9d313e0d984d6bb22096873c1e8494cb"
      },
      "encounter": {
        "reference": "Encounter/ddfebb2e3f246cfbf1c3a5ca5481eb35fb00278b178969f0f43965653d62e938"
      },
      "_recordedDate": {
        "extension": [ {
          "url": "http://hl7.org/fhir/StructureDefinition/data-absent-reason",
          "valueCode": "unknown"
        } ]
      }
    },
    "request": {
      "method": "POST",
      "url": "Condition",
      "ifNoneExist": "identifier=https://mein.krankenhaus.de/fhir/NamingSystem/conditionId|f0ed9bc81b5f7fff8d1df0907394ea8bc20bc35e40afca267bbcb7c5c58ec848"
    }
  }, {
    "fullUrl": "Condition/8e33001e88d4c96564befb8065a8a3b488d22f0c016b4121aec013627a86adc2",
    "resource": {
      "resourceType": "Condition",
      "meta": {
        "profile": [ "https://www.netzwerk-universitaetsmedizin.de/fhir/StructureDefinition/symptoms-covid-19" ]
      },
      "identifier": [ {
        "system": "https://mein.krankenhaus.de/fhir/NamingSystem/conditionId",
        "value": "45887e944828f3cbb96f11b4749c8ab9d951aa4036fe61b39b6b64a850f24711"
      } ],
      "clinicalStatus": {
        "coding": [ {
          "system": "http://terminology.hl7.org/CodeSystem/condition-clinical",
          "code": "active",
          "display": "Active"
        } ]
      },
      "verificationStatus": {
        "coding": [ {
          "system": "http://terminology.hl7.org/CodeSystem/condition-ver-status",
          "code": "confirmed",
          "display": "Confirmed"
        }, {
          "system": "http://snomed.info/sct",
          "code": "410605003",
          "display": "Confirmed present (qualifier value)"
        } ]
      },
      "category": [ {
        "coding": [ {
          "system": "http://loinc.org",
          "code": "75325-1"
        } ]
      } ],
      "severity": {
        "coding": [ {
          "system": "http://snomed.info/sct",
          "code": "442452003"
        } ]
      },
      "code": {
        "coding": [ {
          "system": "http://snomed.info/sct",
          "code": "49727002"
        } ]
      },
      "subject": {
        "reference": "Patient/2fcc931a70f11d9018f4c9551b38cb2a9d313e0d984d6bb22096873c1e8494cb"
      },
      "encounter": {
        "reference": "Encounter/ddfebb2e3f246cfbf1c3a5ca5481eb35fb00278b178969f0f43965653d62e938"
      },
      "_recordedDate": {
        "extension": [ {
          "url": "http://hl7.org/fhir/StructureDefinition/data-absent-reason",
          "valueCode": "unknown"
        } ]
      }
    },
    "request": {
      "method": "POST",
      "url": "Condition",
      "ifNoneExist": "identifier=https://mein.krankenhaus.de/fhir/NamingSystem/conditionId|8e33001e88d4c96564befb8065a8a3b488d22f0c016b4121aec013627a86adc2"
    }
  }, {
    "fullUrl": "Condition/7ba4edd11939905c15d98a8369ee197633b9b049db5d8e6e2d7d895323b9cdde",
    "resource": {
      "resourceType": "Condition",
      "meta": {
        "profile": [ "https://www.netzwerk-universitaetsmedizin.de/fhir/StructureDefinition/symptoms-covid-19" ]
      },
      "identifier": [ {
        "system": "https://mein.krankenhaus.de/fhir/NamingSystem/conditionId",
        "value": "7f80f6e4abe372eceb5deeab212b9f16d82da008ec70d1d34b003f0eccb9e752"
      } ],
      "clinicalStatus": {
        "coding": [ {
          "system": "http://terminology.hl7.org/CodeSystem/condition-clinical",
          "code": "active",
          "display": "Active"
        } ]
      },
      "verificationStatus": {
        "coding": [ {
          "system": "http://terminology.hl7.org/CodeSystem/condition-ver-status",
          "code": "refuted",
          "display": "Refuted"
        }, {
          "system": "http://snomed.info/sct",
          "code": "410594000",
          "display": "Definitely NOT present (qualifier value)"
        } ]
      },
      "category": [ {
        "coding": [ {
          "system": "http://loinc.org",
          "code": "75325-1"
        } ]
      } ],
      "code": {
        "coding": [ {
          "system": "http://snomed.info/sct",
          "code": "267036007"
        } ]
      },
      "subject": {
        "reference": "Patient/2fcc931a70f11d9018f4c9551b38cb2a9d313e0d984d6bb22096873c1e8494cb"
      },
      "encounter": {
        "reference": "Encounter/ddfebb2e3f246cfbf1c3a5ca5481eb35fb00278b178969f0f43965653d62e938"
      },
      "_recordedDate": {
        "extension": [ {
          "url": "http://hl7.org/fhir/StructureDefinition/data-absent-reason",
          "valueCode": "unknown"
        } ]
      }
    },
    "request": {
      "method": "POST",
      "url": "Condition",
      "ifNoneExist": "identifier=https://mein.krankenhaus.de/fhir/NamingSystem/conditionId|7ba4edd11939905c15d98a8369ee197633b9b049db5d8e6e2d7d895323b9cdde"
    }
  }, {
    "fullUrl": "Condition/1ba30af16946e8c6e66c00269988a356e62ef2f7d151d27d87574ca33d6e2cc2",
    "resource": {
      "resourceType": "Condition",
      "meta": {
        "profile": [ "https://www.netzwerk-universitaetsmedizin.de/fhir/StructureDefinition/symptoms-covid-19" ]
      },
      "modifierExtension": [ {
        "url": "https://www.netzwerk-universitaetsmedizin.de/fhir/StructureDefinition/uncertainty-of-presence",
        "valueCodeableConcept": {
          "coding": [ {
            "system": "http://snomed.info/sct",
            "code": "261665006",
            "display": "Unknown (qualifier value)"
          } ],
          "text": "Presence unknown."
        }
      } ],
      "identifier": [ {
        "system": "https://mein.krankenhaus.de/fhir/NamingSystem/conditionId",
        "value": "d65d1dfb7c815ebba642e1e85be44e8770b695f5bf04e2246472ef42526f21d4"
      } ],
      "clinicalStatus": {
        "coding": [ {
          "system": "http://terminology.hl7.org/CodeSystem/condition-clinical",
          "code": "active",
          "display": "Active"
        } ]
      },
      "category": [ {
        "coding": [ {
          "system": "http://loinc.org",
          "code": "75325-1"
        } ]
      } ],
      "code": {
        "coding": [ {
          "system": "http://snomed.info/sct",
          "code": "422587007"
        } ]
      },
      "subject": {
        "reference": "Patient/2fcc931a70f11d9018f4c9551b38cb2a9d313e0d984d6bb22096873c1e8494cb"
      },
      "encounter": {
        "reference": "Encounter/ddfebb2e3f246cfbf1c3a5ca5481eb35fb00278b178969f0f43965653d62e938"
      },
      "_recordedDate": {
        "extension": [ {
          "url": "http://hl7.org/fhir/StructureDefinition/data-absent-reason",
          "valueCode": "unknown"
        } ]
      }
    },
    "request": {
      "method": "POST",
      "url": "Condition",
      "ifNoneExist": "identifier=https://mein.krankenhaus.de/fhir/NamingSystem/conditionId|1ba30af16946e8c6e66c00269988a356e62ef2f7d151d27d87574ca33d6e2cc2"
    }
  }, {
    "fullUrl": "Condition/7ffb750623ceb5845b9ac75266746467d2e5c9e8b04aad5a33276813b8d75319",
    "resource": {
      "resourceType": "Condition",
      "meta": {
        "profile": [ "https://www.netzwerk-universitaetsmedizin.de/fhir/StructureDefinition/symptoms-covid-19" ]
      },
      "identifier": [ {
        "system": "https://mein.krankenhaus.de/fhir/NamingSystem/conditionId",
        "value": "48ddb5edb4ead15c61c862a0b40c59c0c3d00b9188b3e4c176c75ee06822df59"
      } ],
      "clinicalStatus": {
        "coding": [ {
          "system": "http://terminology.hl7.org/CodeSystem/condition-clinical",
          "code": "active",
          "display": "Active"
        } ]
      },
      "verificationStatus": {
        "coding": [ {
          "system": "http://terminology.hl7.org/CodeSystem/condition-ver-status",
          "code": "refuted",
          "display": "Refuted"
        }, {
          "system": "http://snomed.info/sct",
          "code": "410594000",
          "display": "Definitely NOT present (qualifier value)"
        } ]
      },
      "category": [ {
        "coding": [ {
          "system": "http://loinc.org",
          "code": "75325-1"
        } ]
      } ],
      "code": {
        "coding": [ {
          "system": "http://snomed.info/sct",
          "code": "426000000"
        } ]
      },
      "subject": {
        "reference": "Patient/2fcc931a70f11d9018f4c9551b38cb2a9d313e0d984d6bb22096873c1e8494cb"
      },
      "encounter": {
        "reference": "Encounter/ddfebb2e3f246cfbf1c3a5ca5481eb35fb00278b178969f0f43965653d62e938"
      },
      "_recordedDate": {
        "extension": [ {
          "url": "http://hl7.org/fhir/StructureDefinition/data-absent-reason",
          "valueCode": "unknown"
        } ]
      }
    },
    "request": {
      "method": "POST",
      "url": "Condition",
      "ifNoneExist": "identifier=https://mein.krankenhaus.de/fhir/NamingSystem/conditionId|7ffb750623ceb5845b9ac75266746467d2e5c9e8b04aad5a33276813b8d75319"
    }
  }, {
    "fullUrl": "Condition/d1be1283fb2af6d99b0f2951365c76f9689dbc29d4ba58172529df88f6be8f47",
    "resource": {
      "resourceType": "Condition",
      "meta": {
        "profile": [ "https://www.netzwerk-universitaetsmedizin.de/fhir/StructureDefinition/symptoms-covid-19" ]
      },
      "identifier": [ {
        "system": "https://mein.krankenhaus.de/fhir/NamingSystem/conditionId",
        "value": "d1e492e040909f5d14655d5df4d4daf71cb2721b4f1a8ad5cbe1ec907a9b22c2"
      } ],
      "clinicalStatus": {
        "coding": [ {
          "system": "http://terminology.hl7.org/CodeSystem/condition-clinical",
          "code": "active",
          "display": "Active"
        } ]
      },
      "verificationStatus": {
        "coding": [ {
          "system": "http://terminology.hl7.org/CodeSystem/condition-ver-status",
          "code": "refuted",
          "display": "Refuted"
        }, {
          "system": "http://snomed.info/sct",
          "code": "410594000",
          "display": "Definitely NOT present (qualifier value)"
        } ]
      },
      "category": [ {
        "coding": [ {
          "system": "http://loinc.org",
          "code": "75325-1"
        } ]
      } ],
      "code": {
        "coding": [ {
          "system": "http://snomed.info/sct",
          "code": "25064002"
        } ]
      },
      "subject": {
        "reference": "Patient/2fcc931a70f11d9018f4c9551b38cb2a9d313e0d984d6bb22096873c1e8494cb"
      },
      "encounter": {
        "reference": "Encounter/ddfebb2e3f246cfbf1c3a5ca5481eb35fb00278b178969f0f43965653d62e938"
      },
      "_recordedDate": {
        "extension": [ {
          "url": "http://hl7.org/fhir/StructureDefinition/data-absent-reason",
          "valueCode": "unknown"
        } ]
      }
    },
    "request": {
      "method": "POST",
      "url": "Condition",
      "ifNoneExist": "identifier=https://mein.krankenhaus.de/fhir/NamingSystem/conditionId|d1be1283fb2af6d99b0f2951365c76f9689dbc29d4ba58172529df88f6be8f47"
    }
  }, {
    "fullUrl": "Procedure/83d9c06676e78112c24537beb5f661f7cc455c1fb236fc7c3ba15902e7da91bf",
    "resource": {
      "resourceType": "Procedure",
      "meta": {
        "profile": [ "https://www.netzwerk-universitaetsmedizin.de/fhir/StructureDefinition/dialysis" ]
      },
      "identifier": [ {
        "system": "https://mein.krankenhaus.de/fhir/NamingSystem/procedureId",
        "value": "d2f6ede875323c09f1efeb3d16303ea3ad09d111aecca5113693688f7006d3f0"
      } ],
      "status": "unknown",
      "category": {
        "coding": [ {
          "system": "http://snomed.info/sct",
          "code": "277132007",
          "display": "Therapeutic procedure (procedure)"
        } ]
      },
      "code": {
        "coding": [ {
          "system": "http://snomed.info/sct",
          "code": "108241001"
        } ],
        "text": "Dialysis"
      },
      "subject": {
        "reference": "Patient/2fcc931a70f11d9018f4c9551b38cb2a9d313e0d984d6bb22096873c1e8494cb"
      },
      "encounter": {
        "reference": "Encounter/ddfebb2e3f246cfbf1c3a5ca5481eb35fb00278b178969f0f43965653d62e938"
      },
      "_performedDateTime": {
        "extension": [ {
          "url": "http://hl7.org/fhir/StructureDefinition/data-absent-reason",
          "valueCode": "unknown"
        } ]
      }
    },
    "request": {
      "method": "POST",
      "url": "Procedure",
      "ifNoneExist": "identifier=https://mein.krankenhaus.de/fhir/NamingSystem/procedureId|83d9c06676e78112c24537beb5f661f7cc455c1fb236fc7c3ba15902e7da91bf"
    }
  }, {
    "fullUrl": "Procedure/47dfa2a8dfb8560a330676d370a0c89e7827c9b86b426bcaf0f1a9b6602bee0f",
    "resource": {
      "resourceType": "Procedure",
      "meta": {
        "profile": [ "https://www.netzwerk-universitaetsmedizin.de/fhir/StructureDefinition/apheresis" ]
      },
      "identifier": [ {
        "system": "https://mein.krankenhaus.de/fhir/NamingSystem/procedureId",
        "value": "c0f620720d20adf13b24fcebec781d61b7e499a875e61e782afe2295ee703c14"
      } ],
      "status": "in-progress",
      "category": {
        "coding": [ {
          "system": "http://snomed.info/sct",
          "code": "277132007",
          "display": "Therapeutic procedure (procedure)"
        } ]
      },
      "code": {
        "coding": [ {
          "system": "http://snomed.info/sct",
          "code": "127788007"
        } ],
        "text": "Apheresis"
      },
      "subject": {
        "reference": "Patient/2fcc931a70f11d9018f4c9551b38cb2a9d313e0d984d6bb22096873c1e8494cb"
      },
      "encounter": {
        "reference": "Encounter/ddfebb2e3f246cfbf1c3a5ca5481eb35fb00278b178969f0f43965653d62e938"
      },
      "_performedDateTime": {
        "extension": [ {
          "url": "http://hl7.org/fhir/StructureDefinition/data-absent-reason",
          "valueCode": "unknown"
        } ]
      }
    },
    "request": {
      "method": "POST",
      "url": "Procedure",
      "ifNoneExist": "identifier=https://mein.krankenhaus.de/fhir/NamingSystem/procedureId|47dfa2a8dfb8560a330676d370a0c89e7827c9b86b426bcaf0f1a9b6602bee0f"
    }
  }, {
    "fullUrl": "Procedure/05218392dff763aebb6bb8a9254abfb6902699d8dc00d9cc81fa0192ec50a853",
    "resource": {
      "resourceType": "Procedure",
      "meta": {
        "profile": [ "https://www.netzwerk-universitaetsmedizin.de/fhir/StructureDefinition/prone-position" ]
      },
      "identifier": [ {
        "system": "https://mein.krankenhaus.de/fhir/NamingSystem/procedureId",
        "value": "ea8bf7e121420cb83b103c5b696c8bbe25443a0841c654be4d69f6ff6b16b7bd"
      } ],
      "status": "not-done",
      "category": {
        "coding": [ {
          "system": "http://snomed.info/sct",
          "code": "225287004",
          "display": "Procedures relating to positioning and support (procedure)"
        } ]
      },
      "code": {
        "coding": [ {
          "system": "http://snomed.info/sct",
          "code": "431182000"
        } ],
        "text": "Prone position"
      },
      "subject": {
        "reference": "Patient/2fcc931a70f11d9018f4c9551b38cb2a9d313e0d984d6bb22096873c1e8494cb"
      },
      "encounter": {
        "reference": "Encounter/ddfebb2e3f246cfbf1c3a5ca5481eb35fb00278b178969f0f43965653d62e938"
      },
      "_performedDateTime": {
        "extension": [ {
          "url": "http://hl7.org/fhir/StructureDefinition/data-absent-reason",
          "valueCode": "not-performed"
        } ]
      }
    },
    "request": {
      "method": "POST",
      "url": "Procedure",
      "ifNoneExist": "identifier=https://mein.krankenhaus.de/fhir/NamingSystem/procedureId|05218392dff763aebb6bb8a9254abfb6902699d8dc00d9cc81fa0192ec50a853"
    }
  }, {
    "fullUrl": "Procedure/547094114fe0cfde3690778b59dace0e784ca59b8ae94053bd9a5cbbff74bd32",
    "resource": {
      "resourceType": "Procedure",
      "meta": {
        "profile": [ "https://www.netzwerk-universitaetsmedizin.de/fhir/StructureDefinition/respiratory-therapies" ]
      },
      "identifier": [ {
        "system": "https://mein.krankenhaus.de/fhir/NamingSystem/procedureId",
        "value": "8a15b2d46a0b9c6514c1eb2cd749f88d80b562f85b7ccbb191109e3854e48830"
      } ],
      "status": "unknown",
      "category": {
        "coding": [ {
          "system": "http://snomed.info/sct",
          "code": "277132007",
          "display": "Therapeutic procedure (procedure)"
        } ]
      },
      "code": {
        "coding": [ {
          "system": "http://snomed.info/sct",
          "code": "40617009",
          "display": "Artificial respiration (procedure)"
        } ]
      },
      "subject": {
        "reference": "Patient/2fcc931a70f11d9018f4c9551b38cb2a9d313e0d984d6bb22096873c1e8494cb"
      },
      "encounter": {
        "reference": "Encounter/ddfebb2e3f246cfbf1c3a5ca5481eb35fb00278b178969f0f43965653d62e938"
      },
      "_performedDateTime": {
        "extension": [ {
          "url": "http://hl7.org/fhir/StructureDefinition/data-absent-reason",
          "valueCode": "unknown"
        } ]
      }
    },
    "request": {
      "method": "POST",
      "url": "Procedure",
      "ifNoneExist": "identifier=https://mein.krankenhaus.de/fhir/NamingSystem/procedureId|547094114fe0cfde3690778b59dace0e784ca59b8ae94053bd9a5cbbff74bd32"
    }
  }, {
    "fullUrl": "Condition/66c3852c898b3484d546a025d82149313d58757a769ebbc468c7da362a1e6562",
    "resource": {
      "resourceType": "Condition",
      "meta": {
        "profile": [ "https://www.netzwerk-universitaetsmedizin.de/fhir/StructureDefinition/dependence-on-ventilator" ]
      },
      "identifier": [ {
        "system": "https://mein.krankenhaus.de/fhir/NamingSystem/conditionId",
        "value": "1b24e90e4b57ae6a76c08b2f2c542d96efdd8a3be2dfd9ed84c8d689916c3a76"
      } ],
      "clinicalStatus": {
        "coding": [ {
          "system": "http://terminology.hl7.org/CodeSystem/condition-clinical",
          "code": "active",
          "display": "Active"
        } ]
      },
      "verificationStatus": {
        "coding": [ {
          "system": "http://terminology.hl7.org/CodeSystem/condition-ver-status",
          "code": "confirmed",
          "display": "Confirmed"
        }, {
          "system": "http://snomed.info/sct",
          "code": "410605003",
          "display": "Confirmed present (qualifier value)"
        } ]
      },
      "category": [ {
        "coding": [ {
          "system": "http://snomed.info/sct",
          "code": "404989005",
          "display": "Ventilation status (observable entity)"
        } ]
      } ],
      "code": {
        "coding": [ {
          "system": "http://snomed.info/sct",
          "code": "444932008"
        } ]
      },
      "subject": {
        "reference": "Patient/2fcc931a70f11d9018f4c9551b38cb2a9d313e0d984d6bb22096873c1e8494cb"
      },
      "encounter": {
        "reference": "Encounter/ddfebb2e3f246cfbf1c3a5ca5481eb35fb00278b178969f0f43965653d62e938"
      },
      "_recordedDate": {
        "extension": [ {
          "url": "http://hl7.org/fhir/StructureDefinition/data-absent-reason",
          "valueCode": "unknown"
        } ]
      }
    },
    "request": {
      "method": "POST",
      "url": "Condition",
      "ifNoneExist": "identifier=https://mein.krankenhaus.de/fhir/NamingSystem/conditionId|66c3852c898b3484d546a025d82149313d58757a769ebbc468c7da362a1e6562"
    }
  }, {
    "fullUrl": "Observation/2f17843559397c5ffac96a8ad4825ccc832b446573adce76c56a47dbffb779af",
    "resource": {
      "resourceType": "Observation",
      "meta": {
        "profile": [ "https://www.netzwerk-universitaetsmedizin.de/fhir/StructureDefinition/discharge-disposition" ]
      },
      "identifier": [ {
        "type": {
          "coding": [ {
            "system": "http://terminology.hl7.org/CodeSystem/v2-0203",
            "code": "OBI",
            "display": "Observation Instance Identifier"
          } ]
        },
        "system": "https://mein.krankenhaus.de/fhir/NamingSystem/observationId",
        "value": "3f39b8009a65f435c297b9e966663cf59e1beb895bcd19261cb5bef5bdfb0384",
        "assigner": {
          "reference": "Organization/3a4f3433bce81181bad2d8e0b8fafccf7dc800bc06f29be73dcb38b750a48f9a"
        }
      } ],
      "status": "final",
      "category": [ {
        "coding": [ {
          "system": "http://terminology.hl7.org/CodeSystem/observation-category",
          "code": "social-history",
          "display": "Social History"
        } ]
      } ],
      "code": {
        "coding": [ {
          "system": "http://loinc.org",
          "code": "55128-3"
        } ],
        "text": "type of Discharge"
      },
      "subject": {
        "reference": "Patient/2fcc931a70f11d9018f4c9551b38cb2a9d313e0d984d6bb22096873c1e8494cb"
      },
      "encounter": {
        "reference": "Encounter/ddfebb2e3f246cfbf1c3a5ca5481eb35fb00278b178969f0f43965653d62e938"
      },
      "_effectiveDateTime": {
        "extension": [ {
          "url": "http://hl7.org/fhir/StructureDefinition/data-absent-reason",
          "valueCode": "unknown"
        } ]
      },
      "valueCodeableConcept": {
        "coding": [ {
          "system": "http://snomed.info/sct",
          "code": "306237005"
        } ]
      }
    },
    "request": {
      "method": "POST",
      "url": "Observation",
      "ifNoneExist": "identifier=https://mein.krankenhaus.de/fhir/NamingSystem/observationId|2f17843559397c5ffac96a8ad4825ccc832b446573adce76c56a47dbffb779af"
    }
  }, {
    "fullUrl": "Observation/77121919db49ef972ea0339da46d81efd73eb06dd8f95ae65b9bf6aae9077612",
    "resource": {
      "resourceType": "Observation",
      "meta": {
        "profile": [ "https://www.netzwerk-universitaetsmedizin.de/fhir/StructureDefinition/sars-cov-2-rt-pcr" ]
      },
      "identifier": [ {
        "type": {
          "coding": [ {
            "system": "http://terminology.hl7.org/CodeSystem/v2-0203",
            "code": "OBI",
            "display": "Observation Instance Identifier"
          } ]
        },
        "system": "https://mein.krankenhaus.de/fhir/NamingSystem/observationId",
        "value": "67b021b682c3f79d4a8adc185e2c85150868a6a6418b9c16f34ecbd7c1f12cd0",
        "assigner": {
          "reference": "Organization/3a4f3433bce81181bad2d8e0b8fafccf7dc800bc06f29be73dcb38b750a48f9a"
        }
      } ],
      "status": "final",
      "category": [ {
        "coding": [ {
          "system": "http://terminology.hl7.org/CodeSystem/observation-category",
          "code": "laboratory",
          "display": "Laboratory"
        }, {
          "system": "http://loinc.org",
          "code": "26436-6",
          "display": "Laboratory studies (set)"
        } ]
      } ],
      "code": {
        "coding": [ {
          "system": "http://loinc.org",
          "code": "94500-6"
        } ]
      },
      "subject": {
        "reference": "Patient/2fcc931a70f11d9018f4c9551b38cb2a9d313e0d984d6bb22096873c1e8494cb"
      },
      "encounter": {
        "reference": "Encounter/ddfebb2e3f246cfbf1c3a5ca5481eb35fb00278b178969f0f43965653d62e938"
      },
      "_effectiveDateTime": {
        "extension": [ {
          "url": "http://hl7.org/fhir/StructureDefinition/data-absent-reason",
          "valueCode": "unknown"
        } ]
      },
      "valueCodeableConcept": {
        "coding": [ {
          "system": "http://snomed.info/sct",
          "code": "260415000"
        } ]
      }
    },
    "request": {
      "method": "POST",
      "url": "Observation",
      "ifNoneExist": "identifier=https://mein.krankenhaus.de/fhir/NamingSystem/observationId|77121919db49ef972ea0339da46d81efd73eb06dd8f95ae65b9bf6aae9077612"
    }
  }, {
    "fullUrl": "Observation/29e847cf6eab7c846d6f79e55c43fd2990843d08550370753828ad60a04e2675",
    "resource": {
      "resourceType": "Observation",
      "meta": {
        "profile": [ "https://www.medizininformatik-initiative.de/fhir/core/modul-labor/StructureDefinition/ObservationLab" ]
      },
      "identifier": [ {
        "type": {
          "coding": [ {
            "system": "http://terminology.hl7.org/CodeSystem/v2-0203",
            "code": "OBI",
            "display": "Observation Instance Identifier"
          } ]
        },
        "system": "https://mein.krankenhaus.de/fhir/NamingSystem/observationId",
        "value": "f048a2f1c26e12c436386d86803aa4826bed3c09f46bb0a5ddd9423e3cdd71b8",
        "assigner": {
          "reference": "Organization/3a4f3433bce81181bad2d8e0b8fafccf7dc800bc06f29be73dcb38b750a48f9a"
        }
      } ],
      "status": "final",
      "category": [ {
        "coding": [ {
          "system": "http://terminology.hl7.org/CodeSystem/observation-category",
          "code": "laboratory",
          "display": "Laboratory"
        }, {
          "system": "http://loinc.org",
          "code": "26436-6"
        } ]
      } ],
      "code": {
        "coding": [ {
          "system": "http://loinc.org",
          "code": "76485-2",
          "display": "c-reactive-protein-in-serum-or-plasma"
        } ],
        "text": "crp"
      },
      "subject": {
        "reference": "Patient/2fcc931a70f11d9018f4c9551b38cb2a9d313e0d984d6bb22096873c1e8494cb"
      },
      "encounter": {
        "reference": "Encounter/ddfebb2e3f246cfbf1c3a5ca5481eb35fb00278b178969f0f43965653d62e938"
      },
      "effectiveDateTime": "2020-10-25T03:14:00+00:00",
      "valueQuantity": {
        "value": 83.51372405876094,
        "unit": "nmol/L",
        "system": "http://unitsofmeasure.org",
        "code": "nmol/L"
      }
    },
    "request": {
      "method": "POST",
      "url": "Observation",
      "ifNoneExist": "identifier=https://mein.krankenhaus.de/fhir/NamingSystem/observationId|29e847cf6eab7c846d6f79e55c43fd2990843d08550370753828ad60a04e2675"
    }
  }, {
    "fullUrl": "Observation/6547dc6dcd691edd40a6c348263e33ce4b4f8c2030b49647fb3134a045fb0313",
    "resource": {
      "resourceType": "Observation",
      "meta": {
        "profile": [ "https://www.medizininformatik-initiative.de/fhir/core/modul-labor/StructureDefinition/ObservationLab" ]
      },
      "identifier": [ {
        "type": {
          "coding": [ {
            "system": "http://terminology.hl7.org/CodeSystem/v2-0203",
            "code": "OBI",
            "display": "Observation Instance Identifier"
          } ]
        },
        "system": "https://mein.krankenhaus.de/fhir/NamingSystem/observationId",
        "value": "7a2e7a2a38f636df66df30d353560f5b59387314d3037ac4969442586880acf4",
        "assigner": {
          "reference": "Organization/3a4f3433bce81181bad2d8e0b8fafccf7dc800bc06f29be73dcb38b750a48f9a"
        }
      } ],
      "status": "final",
      "category": [ {
        "coding": [ {
          "system": "http://terminology.hl7.org/CodeSystem/observation-category",
          "code": "laboratory",
          "display": "Laboratory"
        }, {
          "system": "http://loinc.org",
          "code": "26436-6"
        } ]
      } ],
      "code": {
        "coding": [ {
          "system": "http://loinc.org",
          "code": "14723-1",
          "display": "ferritin-in-serum-or-plasma"
        } ],
        "text": "ferritin"
      },
      "subject": {
        "reference": "Patient/2fcc931a70f11d9018f4c9551b38cb2a9d313e0d984d6bb22096873c1e8494cb"
      },
      "encounter": {
        "reference": "Encounter/ddfebb2e3f246cfbf1c3a5ca5481eb35fb00278b178969f0f43965653d62e938"
      },
      "effectiveDateTime": "2020-10-25T03:14:00+00:00",
      "valueQuantity": {
        "value": 76.5656838272478,
        "unit": "pmol/L",
        "system": "http://unitsofmeasure.org",
        "code": "pmol/L"
      }
    },
    "request": {
      "method": "POST",
      "url": "Observation",
      "ifNoneExist": "identifier=https://mein.krankenhaus.de/fhir/NamingSystem/observationId|6547dc6dcd691edd40a6c348263e33ce4b4f8c2030b49647fb3134a045fb0313"
    }
  }, {
    "fullUrl": "Observation/e35b7d0b90fab709fea0744006e786a9db765b1c4d54519ac07217b8bb602ac7",
    "resource": {
      "resourceType": "Observation",
      "meta": {
        "profile": [ "https://www.medizininformatik-initiative.de/fhir/core/modul-labor/StructureDefinition/ObservationLab" ]
      },
      "identifier": [ {
        "type": {
          "coding": [ {
            "system": "http://terminology.hl7.org/CodeSystem/v2-0203",
            "code": "OBI",
            "display": "Observation Instance Identifier"
          } ]
        },
        "system": "https://mein.krankenhaus.de/fhir/NamingSystem/observationId",
        "value": "7bbde4d89bbd879d9a38dec04491203821ad7bfd710d324062948216798ccec5",
        "assigner": {
          "reference": "Organization/3a4f3433bce81181bad2d8e0b8fafccf7dc800bc06f29be73dcb38b750a48f9a"
        }
      } ],
      "status": "final",
      "category": [ {
        "coding": [ {
          "system": "http://terminology.hl7.org/CodeSystem/observation-category",
          "code": "laboratory",
          "display": "Laboratory"
        }, {
          "system": "http://loinc.org",
          "code": "26436-6"
        } ]
      } ],
      "code": {
        "coding": [ {
          "system": "http://loinc.org",
          "code": "1975-2",
          "display": "bilirubin.total-in-serum-or-plasma"
        } ],
        "text": "bilirubin"
      },
      "subject": {
        "reference": "Patient/2fcc931a70f11d9018f4c9551b38cb2a9d313e0d984d6bb22096873c1e8494cb"
      },
      "encounter": {
        "reference": "Encounter/ddfebb2e3f246cfbf1c3a5ca5481eb35fb00278b178969f0f43965653d62e938"
      },
      "effectiveDateTime": "2020-10-25T03:14:00+00:00",
      "valueQuantity": {
        "value": 11.073505196790013,
        "unit": "mg/dL",
        "system": "http://unitsofmeasure.org",
        "code": "mg/dL"
      }
    },
    "request": {
      "method": "POST",
      "url": "Observation",
      "ifNoneExist": "identifier=https://mein.krankenhaus.de/fhir/NamingSystem/observationId|e35b7d0b90fab709fea0744006e786a9db765b1c4d54519ac07217b8bb602ac7"
    }
  }, {
    "fullUrl": "Observation/f24dbb9550d5e5f6f38f987105003fd3a32388ea03e39d74bdc0810a0cd2fc84",
    "resource": {
      "resourceType": "Observation",
      "meta": {
        "profile": [ "https://www.medizininformatik-initiative.de/fhir/core/modul-labor/StructureDefinition/ObservationLab" ]
      },
      "identifier": [ {
        "type": {
          "coding": [ {
            "system": "http://terminology.hl7.org/CodeSystem/v2-0203",
            "code": "OBI",
            "display": "Observation Instance Identifier"
          } ]
        },
        "system": "https://mein.krankenhaus.de/fhir/NamingSystem/observationId",
        "value": "349466761a043b384fb72128f6f3cb28fb6eae5ba5fea4322514c69238405783",
        "assigner": {
          "reference": "Organization/3a4f3433bce81181bad2d8e0b8fafccf7dc800bc06f29be73dcb38b750a48f9a"
        }
      } ],
      "status": "final",
      "category": [ {
        "coding": [ {
          "system": "http://terminology.hl7.org/CodeSystem/observation-category",
          "code": "laboratory",
          "display": "Laboratory"
        }, {
          "system": "http://loinc.org",
          "code": "26436-6"
        } ]
      } ],
      "code": {
        "coding": [ {
          "system": "http://loinc.org",
          "code": "48066-5",
          "display": "fibrin-d-dimer-ddu-in-platelet-poor-plasma"
        } ],
        "text": "ddimer"
      },
      "subject": {
        "reference": "Patient/2fcc931a70f11d9018f4c9551b38cb2a9d313e0d984d6bb22096873c1e8494cb"
      },
      "encounter": {
        "reference": "Encounter/ddfebb2e3f246cfbf1c3a5ca5481eb35fb00278b178969f0f43965653d62e938"
      },
      "effectiveDateTime": "2020-10-25T03:14:00+00:00",
      "valueQuantity": {
        "value": 77.75954528843216,
        "unit": "ng/mL",
        "system": "http://unitsofmeasure.org",
        "code": "ng/mL"
      }
    },
    "request": {
      "method": "POST",
      "url": "Observation",
      "ifNoneExist": "identifier=https://mein.krankenhaus.de/fhir/NamingSystem/observationId|f24dbb9550d5e5f6f38f987105003fd3a32388ea03e39d74bdc0810a0cd2fc84"
    }
  }, {
    "fullUrl": "Observation/ba9d31893a9e05bf783e8555aea14354dc067cca7efe40a625517c34ad08e876",
    "resource": {
      "resourceType": "Observation",
      "meta": {
        "profile": [ "https://www.medizininformatik-initiative.de/fhir/core/modul-labor/StructureDefinition/ObservationLab" ]
      },
      "identifier": [ {
        "type": {
          "coding": [ {
            "system": "http://terminology.hl7.org/CodeSystem/v2-0203",
            "code": "OBI",
            "display": "Observation Instance Identifier"
          } ]
        },
        "system": "https://mein.krankenhaus.de/fhir/NamingSystem/observationId",
        "value": "1809370521825f0f3fc93e4768d63d80b6d4ba05faec4713d680fd3d1e6bb779",
        "assigner": {
          "reference": "Organization/3a4f3433bce81181bad2d8e0b8fafccf7dc800bc06f29be73dcb38b750a48f9a"
        }
      } ],
      "status": "final",
      "category": [ {
        "coding": [ {
          "system": "http://terminology.hl7.org/CodeSystem/observation-category",
          "code": "laboratory",
          "display": "Laboratory"
        }, {
          "system": "http://loinc.org",
          "code": "26436-6"
        } ]
      } ],
      "code": {
        "coding": [ {
          "system": "http://loinc.org",
          "code": "2324-2",
          "display": "gamma-glutamyl-transferase-in-serum-or-plasma"
        } ],
        "text": "gammagt"
      },
      "subject": {
        "reference": "Patient/2fcc931a70f11d9018f4c9551b38cb2a9d313e0d984d6bb22096873c1e8494cb"
      },
      "encounter": {
        "reference": "Encounter/ddfebb2e3f246cfbf1c3a5ca5481eb35fb00278b178969f0f43965653d62e938"
      },
      "effectiveDateTime": "2020-10-25T03:14:00+00:00",
      "valueQuantity": {
        "value": 44.740534722062854,
        "unit": "U/L",
        "system": "http://unitsofmeasure.org",
        "code": "U/L"
      }
    },
    "request": {
      "method": "POST",
      "url": "Observation",
      "ifNoneExist": "identifier=https://mein.krankenhaus.de/fhir/NamingSystem/observationId|ba9d31893a9e05bf783e8555aea14354dc067cca7efe40a625517c34ad08e876"
    }
  }, {
    "fullUrl": "Observation/bdb7dbdad819b4d49f1bcf6070a74f8bd0ab9dea612b1d06ea95adc3a58b3c35",
    "resource": {
      "resourceType": "Observation",
      "meta": {
        "profile": [ "https://www.medizininformatik-initiative.de/fhir/core/modul-labor/StructureDefinition/ObservationLab" ]
      },
      "identifier": [ {
        "type": {
          "coding": [ {
            "system": "http://terminology.hl7.org/CodeSystem/v2-0203",
            "code": "OBI",
            "display": "Observation Instance Identifier"
          } ]
        },
        "system": "https://mein.krankenhaus.de/fhir/NamingSystem/observationId",
        "value": "947e5bb8ac05a0dc9b6ad37a2b67acb2cd254af09c20941a8b89c2f3ce17179f",
        "assigner": {
          "reference": "Organization/3a4f3433bce81181bad2d8e0b8fafccf7dc800bc06f29be73dcb38b750a48f9a"
        }
      } ],
      "status": "final",
      "category": [ {
        "coding": [ {
          "system": "http://terminology.hl7.org/CodeSystem/observation-category",
          "code": "laboratory",
          "display": "Laboratory"
        }, {
          "system": "http://loinc.org",
          "code": "26436-6"
        } ]
      } ],
      "code": {
        "coding": [ {
          "system": "http://loinc.org",
          "code": "30239-8",
          "display": "aspartate-aminotransferase-in-serum-or-plasma-by-with-p-5-p"
        } ],
        "text": "gotast"
      },
      "subject": {
        "reference": "Patient/2fcc931a70f11d9018f4c9551b38cb2a9d313e0d984d6bb22096873c1e8494cb"
      },
      "encounter": {
        "reference": "Encounter/ddfebb2e3f246cfbf1c3a5ca5481eb35fb00278b178969f0f43965653d62e938"
      },
      "effectiveDateTime": "2020-10-25T03:14:00+00:00",
      "valueQuantity": {
        "value": 55.016652509539334,
        "unit": "U/L",
        "system": "http://unitsofmeasure.org",
        "code": "U/L"
      }
    },
    "request": {
      "method": "POST",
      "url": "Observation",
      "ifNoneExist": "identifier=https://mein.krankenhaus.de/fhir/NamingSystem/observationId|bdb7dbdad819b4d49f1bcf6070a74f8bd0ab9dea612b1d06ea95adc3a58b3c35"
    }
  }, {
    "fullUrl": "Observation/f63caa757d1706253cdbbb51b98b34d35161c6c4ac5d990ab3e6c65c42c23dae",
    "resource": {
      "resourceType": "Observation",
      "meta": {
        "profile": [ "https://www.medizininformatik-initiative.de/fhir/core/modul-labor/StructureDefinition/ObservationLab" ]
      },
      "identifier": [ {
        "type": {
          "coding": [ {
            "system": "http://terminology.hl7.org/CodeSystem/v2-0203",
            "code": "OBI",
            "display": "Observation Instance Identifier"
          } ]
        },
        "system": "https://mein.krankenhaus.de/fhir/NamingSystem/observationId",
        "value": "b276a841ab31d33989e064eec89e0d30b08839454773fe0f9c62785c814e1e2c",
        "assigner": {
          "reference": "Organization/3a4f3433bce81181bad2d8e0b8fafccf7dc800bc06f29be73dcb38b750a48f9a"
        }
      } ],
      "status": "final",
      "category": [ {
        "coding": [ {
          "system": "http://terminology.hl7.org/CodeSystem/observation-category",
          "code": "laboratory",
          "display": "Laboratory"
        }, {
          "system": "http://loinc.org",
          "code": "26436-6"
        } ]
      } ],
      "code": {
        "coding": [ {
          "system": "http://loinc.org",
          "code": "60017-1",
          "display": "lactate-dehydrogenase-in-body-fluid-by-pyruvate-to-lactate-reaction"
        } ],
        "text": "ldh"
      },
      "subject": {
        "reference": "Patient/2fcc931a70f11d9018f4c9551b38cb2a9d313e0d984d6bb22096873c1e8494cb"
      },
      "encounter": {
        "reference": "Encounter/ddfebb2e3f246cfbf1c3a5ca5481eb35fb00278b178969f0f43965653d62e938"
      },
      "effectiveDateTime": "2020-10-25T03:14:00+00:00",
      "valueQuantity": {
        "value": 67.10508122682917,
        "unit": "U/L",
        "system": "http://unitsofmeasure.org",
        "code": "U/L"
      }
    },
    "request": {
      "method": "POST",
      "url": "Observation",
      "ifNoneExist": "identifier=https://mein.krankenhaus.de/fhir/NamingSystem/observationId|f63caa757d1706253cdbbb51b98b34d35161c6c4ac5d990ab3e6c65c42c23dae"
    }
  }, {
    "fullUrl": "Observation/d3d9fedf26cb8ecf31b9475a2d130d137af515fa12a71a7a0fb847fe413af500",
    "resource": {
      "resourceType": "Observation",
      "meta": {
        "profile": [ "https://www.medizininformatik-initiative.de/fhir/core/modul-labor/StructureDefinition/ObservationLab" ]
      },
      "identifier": [ {
        "type": {
          "coding": [ {
            "system": "http://terminology.hl7.org/CodeSystem/v2-0203",
            "code": "OBI",
            "display": "Observation Instance Identifier"
          } ]
        },
        "system": "https://mein.krankenhaus.de/fhir/NamingSystem/observationId",
        "value": "495026c8511621f3f46a944cdb84a8b0ee774abc6931b3595462c71cd13a69f0",
        "assigner": {
          "reference": "Organization/3a4f3433bce81181bad2d8e0b8fafccf7dc800bc06f29be73dcb38b750a48f9a"
        }
      } ],
      "status": "final",
      "category": [ {
        "coding": [ {
          "system": "http://terminology.hl7.org/CodeSystem/observation-category",
          "code": "laboratory",
          "display": "Laboratory"
        }, {
          "system": "http://loinc.org",
          "code": "26436-6"
        } ]
      } ],
      "code": {
        "coding": [ {
          "system": "http://loinc.org",
          "code": "75928-2",
          "display": "hemoglobin-in-arterial-blood"
        } ],
        "text": "hamoglobin"
      },
      "subject": {
        "reference": "Patient/2fcc931a70f11d9018f4c9551b38cb2a9d313e0d984d6bb22096873c1e8494cb"
      },
      "encounter": {
        "reference": "Encounter/ddfebb2e3f246cfbf1c3a5ca5481eb35fb00278b178969f0f43965653d62e938"
      },
      "effectiveDateTime": "2020-10-25T03:14:00+00:00",
      "valueQuantity": {
        "value": 32.73737090206117,
        "unit": "mmol/L",
        "system": "http://unitsofmeasure.org",
        "code": "mmol/L"
      }
    },
    "request": {
      "method": "POST",
      "url": "Observation",
      "ifNoneExist": "identifier=https://mein.krankenhaus.de/fhir/NamingSystem/observationId|d3d9fedf26cb8ecf31b9475a2d130d137af515fa12a71a7a0fb847fe413af500"
    }
  }, {
    "fullUrl": "Observation/bca3e7918c2e58b155e8145c57fd9eaf03c1ce5fa8f7079b6a1e19ee11e2f6c6",
    "resource": {
      "resourceType": "Observation",
      "meta": {
        "profile": [ "https://www.medizininformatik-initiative.de/fhir/core/modul-labor/StructureDefinition/ObservationLab" ]
      },
      "identifier": [ {
        "type": {
          "coding": [ {
            "system": "http://terminology.hl7.org/CodeSystem/v2-0203",
            "code": "OBI",
            "display": "Observation Instance Identifier"
          } ]
        },
        "system": "https://mein.krankenhaus.de/fhir/NamingSystem/observationId",
        "value": "351732d5a4409b231cba8a46512e202338499eb488d21660f25b0196b366dc4f",
        "assigner": {
          "reference": "Organization/3a4f3433bce81181bad2d8e0b8fafccf7dc800bc06f29be73dcb38b750a48f9a"
        }
      } ],
      "status": "final",
      "category": [ {
        "coding": [ {
          "system": "http://terminology.hl7.org/CodeSystem/observation-category",
          "code": "laboratory",
          "display": "Laboratory"
        }, {
          "system": "http://loinc.org",
          "code": "26436-6"
        } ]
      } ],
      "code": {
        "coding": [ {
          "system": "http://loinc.org",
          "code": "25386-4",
          "display": "creatinine-in-body-fluid"
        } ],
        "text": "kreatinin"
      },
      "subject": {
        "reference": "Patient/2fcc931a70f11d9018f4c9551b38cb2a9d313e0d984d6bb22096873c1e8494cb"
      },
      "encounter": {
        "reference": "Encounter/ddfebb2e3f246cfbf1c3a5ca5481eb35fb00278b178969f0f43965653d62e938"
      },
      "effectiveDateTime": "2020-10-25T03:14:00+00:00",
      "valueQuantity": {
        "value": 20.137191174397493,
        "unit": "umol/L",
        "system": "http://unitsofmeasure.org",
        "code": "umol/L"
      }
    },
    "request": {
      "method": "POST",
      "url": "Observation",
      "ifNoneExist": "identifier=https://mein.krankenhaus.de/fhir/NamingSystem/observationId|bca3e7918c2e58b155e8145c57fd9eaf03c1ce5fa8f7079b6a1e19ee11e2f6c6"
    }
  }, {
    "fullUrl": "Observation/6a8c5228e97009dc449b94ccea2037cae92f5b65fae6fe9204da511cbb5cff5c",
    "resource": {
      "resourceType": "Observation",
      "meta": {
        "profile": [ "https://www.medizininformatik-initiative.de/fhir/core/modul-labor/StructureDefinition/ObservationLab" ]
      },
      "identifier": [ {
        "type": {
          "coding": [ {
            "system": "http://terminology.hl7.org/CodeSystem/v2-0203",
            "code": "OBI",
            "display": "Observation Instance Identifier"
          } ]
        },
        "system": "https://mein.krankenhaus.de/fhir/NamingSystem/observationId",
        "value": "d432484e440d5a78637bfe3b556af22895e449966f18cc90051355956dfcd9b9",
        "assigner": {
          "reference": "Organization/3a4f3433bce81181bad2d8e0b8fafccf7dc800bc06f29be73dcb38b750a48f9a"
        }
      } ],
      "status": "final",
      "category": [ {
        "coding": [ {
          "system": "http://terminology.hl7.org/CodeSystem/observation-category",
          "code": "laboratory",
          "display": "Laboratory"
        }, {
          "system": "http://loinc.org",
          "code": "26436-6"
        } ]
      } ],
      "code": {
        "coding": [ {
          "system": "http://loinc.org",
          "code": "59032-3",
          "display": "lactate-in-blood"
        } ],
        "text": "laktat"
      },
      "subject": {
        "reference": "Patient/2fcc931a70f11d9018f4c9551b38cb2a9d313e0d984d6bb22096873c1e8494cb"
      },
      "encounter": {
        "reference": "Encounter/ddfebb2e3f246cfbf1c3a5ca5481eb35fb00278b178969f0f43965653d62e938"
      },
      "effectiveDateTime": "2020-10-25T03:14:00+00:00",
      "valueQuantity": {
        "value": 23.11177678644575,
        "unit": "mg/dL",
        "system": "http://unitsofmeasure.org",
        "code": "mg/dL"
      }
    },
    "request": {
      "method": "POST",
      "url": "Observation",
      "ifNoneExist": "identifier=https://mein.krankenhaus.de/fhir/NamingSystem/observationId|6a8c5228e97009dc449b94ccea2037cae92f5b65fae6fe9204da511cbb5cff5c"
    }
  }, {
    "fullUrl": "Observation/419c8d8c9f9cb1d23e243e3ed15e2942bff1378e0dfe7a77419325ced13bdc5f",
    "resource": {
      "resourceType": "Observation",
      "meta": {
        "profile": [ "https://www.medizininformatik-initiative.de/fhir/core/modul-labor/StructureDefinition/ObservationLab" ]
      },
      "identifier": [ {
        "type": {
          "coding": [ {
            "system": "http://terminology.hl7.org/CodeSystem/v2-0203",
            "code": "OBI",
            "display": "Observation Instance Identifier"
          } ]
        },
        "system": "https://mein.krankenhaus.de/fhir/NamingSystem/observationId",
        "value": "637ac5e58bfaa763e560a5df707b9a8e989209a9dd3a2f6010e52e2d1c26c5df",
        "assigner": {
          "reference": "Organization/3a4f3433bce81181bad2d8e0b8fafccf7dc800bc06f29be73dcb38b750a48f9a"
        }
      } ],
      "status": "final",
      "category": [ {
        "coding": [ {
          "system": "http://terminology.hl7.org/CodeSystem/observation-category",
          "code": "laboratory",
          "display": "Laboratory"
        }, {
          "system": "http://loinc.org",
          "code": "26436-6"
        } ]
      } ],
      "code": {
        "coding": [ {
          "system": "http://loinc.org",
          "code": "49498-9",
          "display": "leukocytes-in-blood-by-estimate"
        } ],
        "text": "leukozyten_absolut"
      },
      "subject": {
        "reference": "Patient/2fcc931a70f11d9018f4c9551b38cb2a9d313e0d984d6bb22096873c1e8494cb"
      },
      "encounter": {
        "reference": "Encounter/ddfebb2e3f246cfbf1c3a5ca5481eb35fb00278b178969f0f43965653d62e938"
      },
      "effectiveDateTime": "2020-10-25T03:14:00+00:00",
      "valueQuantity": {
        "value": 84.81993093723214,
        "unit": "10*3/uL",
        "system": "http://unitsofmeasure.org",
        "code": "10*3/uL"
      }
    },
    "request": {
      "method": "POST",
      "url": "Observation",
      "ifNoneExist": "identifier=https://mein.krankenhaus.de/fhir/NamingSystem/observationId|419c8d8c9f9cb1d23e243e3ed15e2942bff1378e0dfe7a77419325ced13bdc5f"
    }
  }, {
    "fullUrl": "Observation/59b3106e34349c0d646a868e2330ca0890bb3d1de4db56bb41770d7c58912a0e",
    "resource": {
      "resourceType": "Observation",
      "meta": {
        "profile": [ "https://www.medizininformatik-initiative.de/fhir/core/modul-labor/StructureDefinition/ObservationLab" ]
      },
      "identifier": [ {
        "type": {
          "coding": [ {
            "system": "http://terminology.hl7.org/CodeSystem/v2-0203",
            "code": "OBI",
            "display": "Observation Instance Identifier"
          } ]
        },
        "system": "https://mein.krankenhaus.de/fhir/NamingSystem/observationId",
        "value": "b90c96e230602e0e88cf07c77347b4b381848e353bf1f21965f671f4a3b74a21",
        "assigner": {
          "reference": "Organization/3a4f3433bce81181bad2d8e0b8fafccf7dc800bc06f29be73dcb38b750a48f9a"
        }
      } ],
      "status": "final",
      "category": [ {
        "coding": [ {
          "system": "http://terminology.hl7.org/CodeSystem/observation-category",
          "code": "laboratory",
          "display": "Laboratory"
        }, {
          "system": "http://loinc.org",
          "code": "26436-6"
        } ]
      } ],
      "code": {
        "coding": [ {
          "system": "http://loinc.org",
          "code": "26499-4",
          "display": "neutrophils-in-blood"
        } ],
        "text": "neutrophile_absolut"
      },
      "subject": {
        "reference": "Patient/2fcc931a70f11d9018f4c9551b38cb2a9d313e0d984d6bb22096873c1e8494cb"
      },
      "encounter": {
        "reference": "Encounter/ddfebb2e3f246cfbf1c3a5ca5481eb35fb00278b178969f0f43965653d62e938"
      },
      "effectiveDateTime": "2020-10-25T03:14:00+00:00",
      "valueQuantity": {
        "value": 97.18050296466001,
        "unit": "10*3/uL",
        "system": "http://unitsofmeasure.org",
        "code": "10*3/uL"
      }
    },
    "request": {
      "method": "POST",
      "url": "Observation",
      "ifNoneExist": "identifier=https://mein.krankenhaus.de/fhir/NamingSystem/observationId|59b3106e34349c0d646a868e2330ca0890bb3d1de4db56bb41770d7c58912a0e"
    }
  }, {
    "fullUrl": "Observation/a56788ede1cbf4fc926910431f9dd28eef59dbadca302c44221b9abd495fe92d",
    "resource": {
      "resourceType": "Observation",
      "meta": {
        "profile": [ "https://www.medizininformatik-initiative.de/fhir/core/modul-labor/StructureDefinition/ObservationLab" ]
      },
      "identifier": [ {
        "type": {
          "coding": [ {
            "system": "http://terminology.hl7.org/CodeSystem/v2-0203",
            "code": "OBI",
            "display": "Observation Instance Identifier"
          } ]
        },
        "system": "https://mein.krankenhaus.de/fhir/NamingSystem/observationId",
        "value": "d5c95adb0d2980be625ddad9f3b92b225549fab823701c7dacc9d4af7ddded70",
        "assigner": {
          "reference": "Organization/3a4f3433bce81181bad2d8e0b8fafccf7dc800bc06f29be73dcb38b750a48f9a"
        }
      } ],
      "status": "final",
      "category": [ {
        "coding": [ {
          "system": "http://terminology.hl7.org/CodeSystem/observation-category",
          "code": "laboratory",
          "display": "Laboratory"
        }, {
          "system": "http://loinc.org",
          "code": "26436-6"
        } ]
      } ],
      "code": {
        "coding": [ {
          "system": "http://loinc.org",
          "code": "16631-4"
        }, {
          "system": "http://loinc.org",
          "code": "43734-3"
        }, {
          "system": "http://loinc.org",
          "code": "14979-9"
        }, {
          "system": "http://loinc.org",
          "code": "3173-2"
        } ],
        "text": "ptt"
      },
      "subject": {
        "reference": "Patient/2fcc931a70f11d9018f4c9551b38cb2a9d313e0d984d6bb22096873c1e8494cb"
      },
      "encounter": {
        "reference": "Encounter/ddfebb2e3f246cfbf1c3a5ca5481eb35fb00278b178969f0f43965653d62e938"
      },
      "effectiveDateTime": "2020-10-25T03:14:00+00:00",
      "valueQuantity": {
        "value": 41.35233024376124,
        "unit": "s",
        "system": "http://unitsofmeasure.org",
        "code": "s"
      }
    },
    "request": {
      "method": "POST",
      "url": "Observation",
      "ifNoneExist": "identifier=https://mein.krankenhaus.de/fhir/NamingSystem/observationId|a56788ede1cbf4fc926910431f9dd28eef59dbadca302c44221b9abd495fe92d"
    }
  }, {
    "fullUrl": "Observation/fa05c9944587a10c86ea4b49c4fbcbc2bdbce26009c7a406334999982e429b5d",
    "resource": {
      "resourceType": "Observation",
      "meta": {
        "profile": [ "https://www.medizininformatik-initiative.de/fhir/core/modul-labor/StructureDefinition/ObservationLab" ]
      },
      "identifier": [ {
        "type": {
          "coding": [ {
            "system": "http://terminology.hl7.org/CodeSystem/v2-0203",
            "code": "OBI",
            "display": "Observation Instance Identifier"
          } ]
        },
        "system": "https://mein.krankenhaus.de/fhir/NamingSystem/observationId",
        "value": "c4eb84e7b36d23590e051b6b6dd7fed47d8bb8cede9cd369cb124777afe5133a",
        "assigner": {
          "reference": "Organization/3a4f3433bce81181bad2d8e0b8fafccf7dc800bc06f29be73dcb38b750a48f9a"
        }
      } ],
      "status": "final",
      "category": [ {
        "coding": [ {
          "system": "http://terminology.hl7.org/CodeSystem/observation-category",
          "code": "laboratory",
          "display": "Laboratory"
        }, {
          "system": "http://loinc.org",
          "code": "26436-6"
        } ]
      } ],
      "code": {
        "coding": [ {
          "system": "http://loinc.org",
          "code": "26515-7",
          "display": "platelets-in-blood"
        } ],
        "text": "thrombozyten_absolut"
      },
      "subject": {
        "reference": "Patient/2fcc931a70f11d9018f4c9551b38cb2a9d313e0d984d6bb22096873c1e8494cb"
      },
      "encounter": {
        "reference": "Encounter/ddfebb2e3f246cfbf1c3a5ca5481eb35fb00278b178969f0f43965653d62e938"
      },
      "effectiveDateTime": "2020-10-25T03:14:00+00:00",
      "valueQuantity": {
        "value": 83.44264856894263,
        "unit": "10*3/uL",
        "system": "http://unitsofmeasure.org",
        "code": "10*3/uL"
      }
    },
    "request": {
      "method": "POST",
      "url": "Observation",
      "ifNoneExist": "identifier=https://mein.krankenhaus.de/fhir/NamingSystem/observationId|fa05c9944587a10c86ea4b49c4fbcbc2bdbce26009c7a406334999982e429b5d"
    }
  }, {
    "fullUrl": "Observation/21d6a97d8aa2c37959d0fc77d9f0c85d6b3cd5174f8355e4bd7014ac03d6a112",
    "resource": {
      "resourceType": "Observation",
      "meta": {
        "profile": [ "https://www.medizininformatik-initiative.de/fhir/core/modul-labor/StructureDefinition/ObservationLab" ]
      },
      "identifier": [ {
        "type": {
          "coding": [ {
            "system": "http://terminology.hl7.org/CodeSystem/v2-0203",
            "code": "OBI",
            "display": "Observation Instance Identifier"
          } ]
        },
        "system": "https://mein.krankenhaus.de/fhir/NamingSystem/observationId",
        "value": "99c56f4af682a7f8d818c3f9296d2853b077f14a11dedfbcdb34d32a28cdf3b3",
        "assigner": {
          "reference": "Organization/3a4f3433bce81181bad2d8e0b8fafccf7dc800bc06f29be73dcb38b750a48f9a"
        }
      } ],
      "status": "final",
      "category": [ {
        "coding": [ {
          "system": "http://terminology.hl7.org/CodeSystem/observation-category",
          "code": "laboratory",
          "display": "Laboratory"
        }, {
          "system": "http://loinc.org",
          "code": "26436-6"
        } ]
      } ],
      "code": {
        "coding": [ {
          "system": "http://loinc.org",
          "code": "46418-0",
          "display": "inr-in-capillary-blood-by-coagulation-assay"
        } ],
        "text": "inr"
      },
      "subject": {
        "reference": "Patient/2fcc931a70f11d9018f4c9551b38cb2a9d313e0d984d6bb22096873c1e8494cb"
      },
      "encounter": {
        "reference": "Encounter/ddfebb2e3f246cfbf1c3a5ca5481eb35fb00278b178969f0f43965653d62e938"
      },
      "effectiveDateTime": "2020-10-25T03:14:00+00:00",
      "valueQuantity": {
        "value": 71.39030842357798,
        "unit": "{INR}",
        "system": "http://unitsofmeasure.org",
        "code": "{INR}"
      }
    },
    "request": {
      "method": "POST",
      "url": "Observation",
      "ifNoneExist": "identifier=https://mein.krankenhaus.de/fhir/NamingSystem/observationId|21d6a97d8aa2c37959d0fc77d9f0c85d6b3cd5174f8355e4bd7014ac03d6a112"
    }
  }, {
    "fullUrl": "Observation/e6651f4e9775fc26b78cef8642f875cc297498a666f12fa1f457ab95b4f75b43",
    "resource": {
      "resourceType": "Observation",
      "meta": {
        "profile": [ "https://www.medizininformatik-initiative.de/fhir/core/modul-labor/StructureDefinition/ObservationLab" ]
      },
      "identifier": [ {
        "type": {
          "coding": [ {
            "system": "http://terminology.hl7.org/CodeSystem/v2-0203",
            "code": "OBI",
            "display": "Observation Instance Identifier"
          } ]
        },
        "system": "https://mein.krankenhaus.de/fhir/NamingSystem/observationId",
        "value": "881e073ff9cac67f53c099d17230f6a64e3142f766f7501c89cf6e2127c12eb6",
        "assigner": {
          "reference": "Organization/3a4f3433bce81181bad2d8e0b8fafccf7dc800bc06f29be73dcb38b750a48f9a"
        }
      } ],
      "status": "final",
      "category": [ {
        "coding": [ {
          "system": "http://terminology.hl7.org/CodeSystem/observation-category",
          "code": "laboratory",
          "display": "Laboratory"
        }, {
          "system": "http://loinc.org",
          "code": "26436-6"
        } ]
      } ],
      "code": {
        "coding": [ {
          "system": "http://loinc.org",
          "code": "62235-7",
          "display": "albumin-in-serum-or-plasma-by-bromocresol-green-bcg-dye-binding-method"
        } ],
        "text": "serumalbumin"
      },
      "subject": {
        "reference": "Patient/2fcc931a70f11d9018f4c9551b38cb2a9d313e0d984d6bb22096873c1e8494cb"
      },
      "encounter": {
        "reference": "Encounter/ddfebb2e3f246cfbf1c3a5ca5481eb35fb00278b178969f0f43965653d62e938"
      },
      "effectiveDateTime": "2020-10-25T03:14:00+00:00",
      "valueQuantity": {
        "value": 79.00425639866788,
        "unit": "umol/L",
        "system": "http://unitsofmeasure.org",
        "code": "umol/L"
      }
    },
    "request": {
      "method": "POST",
      "url": "Observation",
      "ifNoneExist": "identifier=https://mein.krankenhaus.de/fhir/NamingSystem/observationId|e6651f4e9775fc26b78cef8642f875cc297498a666f12fa1f457ab95b4f75b43"
    }
  }, {
    "fullUrl": "Observation/82dee9e6798b565cb795fdb2d77fb8ecf6fe629a1eca686f835eee42ee44d607",
    "resource": {
      "resourceType": "Observation",
      "meta": {
        "profile": [ "https://www.medizininformatik-initiative.de/fhir/core/modul-labor/StructureDefinition/ObservationLab" ]
      },
      "identifier": [ {
        "type": {
          "coding": [ {
            "system": "http://terminology.hl7.org/CodeSystem/v2-0203",
            "code": "OBI",
            "display": "Observation Instance Identifier"
          } ]
        },
        "system": "https://mein.krankenhaus.de/fhir/NamingSystem/observationId",
        "value": "9e23491fbe3820d9f63f7a32540b1a206c883e7b1d2b81f2f3036a071b22fd0b",
        "assigner": {
          "reference": "Organization/3a4f3433bce81181bad2d8e0b8fafccf7dc800bc06f29be73dcb38b750a48f9a"
        }
      } ],
      "status": "final",
      "category": [ {
        "coding": [ {
          "system": "http://terminology.hl7.org/CodeSystem/observation-category",
          "code": "laboratory",
          "display": "Laboratory"
        }, {
          "system": "http://loinc.org",
          "code": "26436-6"
        } ]
      } ],
      "code": {
        "coding": [ {
          "system": "http://loinc.org",
          "code": "27812-7"
        }, {
          "system": "http://loinc.org",
          "code": "27811-9"
        }, {
          "system": "http://loinc.org",
          "code": "3176-5"
        }, {
          "system": "http://loinc.org",
          "code": "91120-6"
        }, {
          "system": "http://loinc.org",
          "code": "3174-0"
        } ],
        "text": "antithrombin_iii"
      },
      "subject": {
        "reference": "Patient/2fcc931a70f11d9018f4c9551b38cb2a9d313e0d984d6bb22096873c1e8494cb"
      },
      "encounter": {
        "reference": "Encounter/ddfebb2e3f246cfbf1c3a5ca5481eb35fb00278b178969f0f43965653d62e938"
      },
      "effectiveDateTime": "2020-10-25T03:14:00+00:00",
      "valueQuantity": {
        "value": 17.094924608072716,
        "unit": "[IU]/mL",
        "system": "http://unitsofmeasure.org",
        "code": "[IU]/mL"
      }
    },
    "request": {
      "method": "POST",
      "url": "Observation",
      "ifNoneExist": "identifier=https://mein.krankenhaus.de/fhir/NamingSystem/observationId|82dee9e6798b565cb795fdb2d77fb8ecf6fe629a1eca686f835eee42ee44d607"
    }
  }, {
    "fullUrl": "Observation/42cf0c39d0006c3e8e979f957b8e97aeb85ad4d226fbebc71ec86d6e54b677cc",
    "resource": {
      "resourceType": "Observation",
      "meta": {
        "profile": [ "https://www.medizininformatik-initiative.de/fhir/core/modul-labor/StructureDefinition/ObservationLab" ]
      },
      "identifier": [ {
        "type": {
          "coding": [ {
            "system": "http://terminology.hl7.org/CodeSystem/v2-0203",
            "code": "OBI",
            "display": "Observation Instance Identifier"
          } ]
        },
        "system": "https://mein.krankenhaus.de/fhir/NamingSystem/observationId",
        "value": "151f82bab22d2c69078746234905491b8c38a671b31dc1a2ed9b2c5a967ddc45",
        "assigner": {
          "reference": "Organization/3a4f3433bce81181bad2d8e0b8fafccf7dc800bc06f29be73dcb38b750a48f9a"
        }
      } ],
      "status": "final",
      "category": [ {
        "coding": [ {
          "system": "http://terminology.hl7.org/CodeSystem/observation-category",
          "code": "laboratory",
          "display": "Laboratory"
        }, {
          "system": "http://loinc.org",
          "code": "26436-6"
        } ]
      } ],
      "code": {
        "coding": [ {
          "system": "http://loinc.org",
          "code": "33959-8",
          "display": "procalcitonin-in-serum-or-plasma"
        } ],
        "text": "pct_procalcitonin"
      },
      "subject": {
        "reference": "Patient/2fcc931a70f11d9018f4c9551b38cb2a9d313e0d984d6bb22096873c1e8494cb"
      },
      "encounter": {
        "reference": "Encounter/ddfebb2e3f246cfbf1c3a5ca5481eb35fb00278b178969f0f43965653d62e938"
      },
      "effectiveDateTime": "2020-10-25T03:14:00+00:00",
      "valueQuantity": {
        "value": 37.08338190887791,
        "unit": "ng/mL",
        "system": "http://unitsofmeasure.org",
        "code": "ng/mL"
      }
    },
    "request": {
      "method": "POST",
      "url": "Observation",
      "ifNoneExist": "identifier=https://mein.krankenhaus.de/fhir/NamingSystem/observationId|42cf0c39d0006c3e8e979f957b8e97aeb85ad4d226fbebc71ec86d6e54b677cc"
    }
  }, {
    "fullUrl": "Observation/6f8d1ac20407dffb3d6c7e9dcc00640402ea2b139fa87abb7f650af265002bba",
    "resource": {
      "resourceType": "Observation",
      "meta": {
        "profile": [ "https://www.medizininformatik-initiative.de/fhir/core/modul-labor/StructureDefinition/ObservationLab" ]
      },
      "identifier": [ {
        "type": {
          "coding": [ {
            "system": "http://terminology.hl7.org/CodeSystem/v2-0203",
            "code": "OBI",
            "display": "Observation Instance Identifier"
          } ]
        },
        "system": "https://mein.krankenhaus.de/fhir/NamingSystem/observationId",
        "value": "c37b899def85f5721760fd8399a9762e3dadd59be64425cb9562f2247153c78b",
        "assigner": {
          "reference": "Organization/3a4f3433bce81181bad2d8e0b8fafccf7dc800bc06f29be73dcb38b750a48f9a"
        }
      } ],
      "status": "final",
      "category": [ {
        "coding": [ {
          "system": "http://terminology.hl7.org/CodeSystem/observation-category",
          "code": "laboratory",
          "display": "Laboratory"
        }, {
          "system": "http://loinc.org",
          "code": "26436-6"
        } ]
      } ],
      "code": {
        "coding": [ {
          "system": "http://loinc.org",
          "code": "44322-6",
          "display": "interleukin-6-in-serum-or-plasma"
        } ],
        "text": "il6_interleukin_6"
      },
      "subject": {
        "reference": "Patient/2fcc931a70f11d9018f4c9551b38cb2a9d313e0d984d6bb22096873c1e8494cb"
      },
      "encounter": {
        "reference": "Encounter/ddfebb2e3f246cfbf1c3a5ca5481eb35fb00278b178969f0f43965653d62e938"
      },
      "effectiveDateTime": "2020-10-25T03:14:00+00:00",
      "valueQuantity": {
        "value": 80.2370023543123,
        "unit": "pg/mL",
        "system": "http://unitsofmeasure.org",
        "code": "pg/mL"
      }
    },
    "request": {
      "method": "POST",
      "url": "Observation",
      "ifNoneExist": "identifier=https://mein.krankenhaus.de/fhir/NamingSystem/observationId|6f8d1ac20407dffb3d6c7e9dcc00640402ea2b139fa87abb7f650af265002bba"
    }
  }, {
    "fullUrl": "Observation/c9e084a3856636ae3d3cf8da2fd6d25f0441bd73b4f8210ae80ebb54d964bac8",
    "resource": {
      "resourceType": "Observation",
      "meta": {
        "profile": [ "https://www.medizininformatik-initiative.de/fhir/core/modul-labor/StructureDefinition/ObservationLab" ]
      },
      "identifier": [ {
        "type": {
          "coding": [ {
            "system": "http://terminology.hl7.org/CodeSystem/v2-0203",
            "code": "OBI",
            "display": "Observation Instance Identifier"
          } ]
        },
        "system": "https://mein.krankenhaus.de/fhir/NamingSystem/observationId",
        "value": "7d41d49ced7029bfb4f81312f3cd830afb9d7f61faef14988aba72016e804335",
        "assigner": {
          "reference": "Organization/3a4f3433bce81181bad2d8e0b8fafccf7dc800bc06f29be73dcb38b750a48f9a"
        }
      } ],
      "status": "final",
      "category": [ {
        "coding": [ {
          "system": "http://terminology.hl7.org/CodeSystem/observation-category",
          "code": "laboratory",
          "display": "Laboratory"
        }, {
          "system": "http://loinc.org",
          "code": "26436-6"
        } ]
      } ],
      "code": {
        "coding": [ {
          "system": "http://loinc.org",
          "code": "83107-3",
          "display": "natriuretic-peptide.b-prohormone-n-terminal-in-serum-or-plasma-by-immunoassay"
        } ],
        "text": "ntprobnp"
      },
      "subject": {
        "reference": "Patient/2fcc931a70f11d9018f4c9551b38cb2a9d313e0d984d6bb22096873c1e8494cb"
      },
      "encounter": {
        "reference": "Encounter/ddfebb2e3f246cfbf1c3a5ca5481eb35fb00278b178969f0f43965653d62e938"
      },
      "effectiveDateTime": "2020-10-25T03:14:00+00:00",
      "valueQuantity": {
        "value": 8.92276611402487,
        "unit": "pg/mL",
        "system": "http://unitsofmeasure.org",
        "code": "pg/mL"
      }
    },
    "request": {
      "method": "POST",
      "url": "Observation",
      "ifNoneExist": "identifier=https://mein.krankenhaus.de/fhir/NamingSystem/observationId|c9e084a3856636ae3d3cf8da2fd6d25f0441bd73b4f8210ae80ebb54d964bac8"
    }
  }, {
    "fullUrl": "Observation/40e1b525e35883aebc0f9388e28de9d8152523499dfcb2d3e604d9b9478fc008",
    "resource": {
      "resourceType": "Observation",
      "meta": {
        "profile": [ "https://www.medizininformatik-initiative.de/fhir/core/modul-labor/StructureDefinition/ObservationLab" ]
      },
      "identifier": [ {
        "type": {
          "coding": [ {
            "system": "http://terminology.hl7.org/CodeSystem/v2-0203",
            "code": "OBI",
            "display": "Observation Instance Identifier"
          } ]
        },
        "system": "https://mein.krankenhaus.de/fhir/NamingSystem/observationId",
        "value": "52c7b16a2e3c5b12995c0546f3b6efa0de29c3d3e5e30b3d29742521d327057a",
        "assigner": {
          "reference": "Organization/3a4f3433bce81181bad2d8e0b8fafccf7dc800bc06f29be73dcb38b750a48f9a"
        }
      } ],
      "status": "final",
      "category": [ {
        "coding": [ {
          "system": "http://terminology.hl7.org/CodeSystem/observation-category",
          "code": "laboratory",
          "display": "Laboratory"
        }, {
          "system": "http://loinc.org",
          "code": "26436-6"
        } ]
      } ],
      "code": {
        "coding": [ {
          "system": "http://loinc.org",
          "code": "30902-1",
          "display": "fibrinogen-in-platelet-poor-plasma-by-heat-denaturation"
        } ],
        "text": "fibrinogen"
      },
      "subject": {
        "reference": "Patient/2fcc931a70f11d9018f4c9551b38cb2a9d313e0d984d6bb22096873c1e8494cb"
      },
      "encounter": {
        "reference": "Encounter/ddfebb2e3f246cfbf1c3a5ca5481eb35fb00278b178969f0f43965653d62e938"
      },
      "effectiveDateTime": "2020-10-25T03:14:00+00:00",
      "valueQuantity": {
        "value": 26.822588418431103,
        "unit": "mg/dL",
        "system": "http://unitsofmeasure.org",
        "code": "mg/dL"
      }
    },
    "request": {
      "method": "POST",
      "url": "Observation",
      "ifNoneExist": "identifier=https://mein.krankenhaus.de/fhir/NamingSystem/observationId|40e1b525e35883aebc0f9388e28de9d8152523499dfcb2d3e604d9b9478fc008"
    }
  }, {
    "fullUrl": "Observation/8b0f8475f9adf0389558aecbd3bf0843ea9c152f32b2ab20d946673a83f2204c",
    "resource": {
      "resourceType": "Observation",
      "meta": {
        "profile": [ "https://www.netzwerk-universitaetsmedizin.de/fhir/StructureDefinition/sars-cov-2-rt-pcr" ]
      },
      "identifier": [ {
        "type": {
          "coding": [ {
            "system": "http://terminology.hl7.org/CodeSystem/v2-0203",
            "code": "OBI",
            "display": "Observation Instance Identifier"
          } ]
        },
        "system": "https://mein.krankenhaus.de/fhir/NamingSystem/observationId",
        "value": "28ca4bf08dd9648f82404fabf3dc6981faf4cedb5991a3512d6af8239144cb46",
        "assigner": {
          "reference": "Organization/3a4f3433bce81181bad2d8e0b8fafccf7dc800bc06f29be73dcb38b750a48f9a"
        }
      } ],
      "status": "final",
      "category": [ {
        "coding": [ {
          "system": "http://terminology.hl7.org/CodeSystem/observation-category",
          "code": "laboratory",
          "display": "Laboratory"
        }, {
          "system": "http://loinc.org",
          "code": "26436-6"
        } ]
      } ],
      "code": {
        "coding": [ {
          "system": "http://loinc.org",
          "code": "94500-6",
          "display": "sars-cov-2-covid-19-rna-in-respiratory-specimen-by-naa-with-probe-detection"
        } ],
        "text": "SARS-CoV-2-RNA (PCR)"
      },
      "subject": {
        "reference": "Patient/2fcc931a70f11d9018f4c9551b38cb2a9d313e0d984d6bb22096873c1e8494cb"
      },
      "encounter": {
        "reference": "Encounter/ddfebb2e3f246cfbf1c3a5ca5481eb35fb00278b178969f0f43965653d62e938"
      },
      "effectiveDateTime": "2020-10-25T03:14:00+00:00",
      "valueCodeableConcept": {
        "coding": [ {
          "system": "http://snomed.info/sct",
          "code": "260373001",
          "display": "Detected (qualifier value)"
        } ],
        "text": "SARS-CoV-2-RNA positiv"
      }
    },
    "request": {
      "method": "POST",
      "url": "Observation",
      "ifNoneExist": "identifier=https://mein.krankenhaus.de/fhir/NamingSystem/observationId|8b0f8475f9adf0389558aecbd3bf0843ea9c152f32b2ab20d946673a83f2204c"
    }
  }, {
    "fullUrl": "Observation/795810b89f86423a94345c56bc70298289840d7da029062f527d53c070e7d13a",
    "resource": {
      "resourceType": "Observation",
      "meta": {
        "profile": [ "https://www.netzwerk-universitaetsmedizin.de/fhir/StructureDefinition/sars-cov-2-ab-pnl-ser-pl-ia" ]
      },
      "identifier": [ {
        "type": {
          "coding": [ {
            "system": "http://terminology.hl7.org/CodeSystem/v2-0203",
            "code": "OBI",
            "display": "Observation Instance Identifier"
          } ]
        },
        "system": "https://mein.krankenhaus.de/fhir/NamingSystem/observationId",
        "value": "10ad3f6416c5480e049bf240716701d816be8dc35e403e1ab5bdb91d0b908c86",
        "assigner": {
          "reference": "Organization/3a4f3433bce81181bad2d8e0b8fafccf7dc800bc06f29be73dcb38b750a48f9a"
        }
      } ],
      "status": "final",
      "category": [ {
        "coding": [ {
          "system": "http://terminology.hl7.org/CodeSystem/observation-category",
          "code": "laboratory",
          "display": "Laboratory"
        }, {
          "system": "http://loinc.org",
          "code": "26436-6"
        } ]
      } ],
      "code": {
        "coding": [ {
          "system": "http://loinc.org",
          "code": "94504-8"
        } ],
        "text": "sarsco_v2_covid19_ab_pnl"
      },
      "subject": {
        "reference": "Patient/2fcc931a70f11d9018f4c9551b38cb2a9d313e0d984d6bb22096873c1e8494cb"
      },
      "encounter": {
        "reference": "Encounter/ddfebb2e3f246cfbf1c3a5ca5481eb35fb00278b178969f0f43965653d62e938"
      },
      "effectiveDateTime": "2020-10-25T03:14:00+00:00",
      "hasMember": [ {
        "reference": "Observation/58bd5137a8d505c6ebec18103eb399096bf336c8556da799631ff8965b30c8d3"
      }, {
        "reference": "Observation/36222bdfce111a802fdf53688a0f817fcd4648c2ebe1f28ab15fec3507af869d"
      }, {
        "reference": "Observation/ab4e68f289cd29182bf50850393f045120150ddabdf6bc73c9636b0fb53cb448"
      }, {
        "reference": "Observation/60fc07674ad04d808401ba87c43323b973645483e4689861aeb4dc81ea357fb5"
      }, {
        "reference": "Observation/d8847a22039e245fea7acc897ae1ede0d3f9cc750edb4ede2d9115839a732e70"
      }, {
        "reference": "Observation/2f760ee19a13be63056f95369556e8b370ea19ea421311b158e535aa5907ea49"
      } ]
    },
    "request": {
      "method": "POST",
      "url": "Observation",
      "ifNoneExist": "identifier=https://mein.krankenhaus.de/fhir/NamingSystem/observationId|795810b89f86423a94345c56bc70298289840d7da029062f527d53c070e7d13a"
    }
  }, {
    "fullUrl": "Observation/58bd5137a8d505c6ebec18103eb399096bf336c8556da799631ff8965b30c8d3",
    "resource": {
      "resourceType": "Observation",
      "meta": {
        "profile": [ "https://www.netzwerk-universitaetsmedizin.de/fhir/StructureDefinition/sars-cov-2-ab-ser-pl-ia-acnc" ]
      },
      "identifier": [ {
        "type": {
          "coding": [ {
            "system": "http://terminology.hl7.org/CodeSystem/v2-0203",
            "code": "OBI",
            "display": "Observation Instance Identifier"
          } ]
        },
        "system": "https://mein.krankenhaus.de/fhir/NamingSystem/observationId",
        "value": "3c9cc7a4b5162a3ffd0913a071f8953fa59731395e5d404fd59ca066f6da7e2f",
        "assigner": {
          "reference": "Organization/3a4f3433bce81181bad2d8e0b8fafccf7dc800bc06f29be73dcb38b750a48f9a"
        }
      } ],
      "status": "final",
      "category": [ {
        "coding": [ {
          "system": "http://terminology.hl7.org/CodeSystem/observation-category",
          "code": "laboratory",
          "display": "Laboratory"
        }, {
          "system": "http://loinc.org",
          "code": "26436-6"
        } ]
      } ],
      "code": {
        "coding": [ {
          "system": "http://loinc.org",
          "code": "94769-7",
          "display": "sars-cov-2-covid-19-ab-in-serum-or-plasma-by-immunoassay"
        } ],
        "text": "sarsco_v2_covid19_ab_ia_qn"
      },
      "subject": {
        "reference": "Patient/2fcc931a70f11d9018f4c9551b38cb2a9d313e0d984d6bb22096873c1e8494cb"
      },
      "encounter": {
        "reference": "Encounter/ddfebb2e3f246cfbf1c3a5ca5481eb35fb00278b178969f0f43965653d62e938"
      },
      "effectiveDateTime": "2020-10-25T03:14:00+00:00",
      "valueQuantity": {
        "value": 80.80002767926382,
        "unit": "[IU]/mL",
        "system": "http://unitsofmeasure.org",
        "code": "[IU]/mL"
      }
    },
    "request": {
      "method": "POST",
      "url": "Observation",
      "ifNoneExist": "identifier=https://mein.krankenhaus.de/fhir/NamingSystem/observationId|58bd5137a8d505c6ebec18103eb399096bf336c8556da799631ff8965b30c8d3"
    }
  }, {
    "fullUrl": "Observation/36222bdfce111a802fdf53688a0f817fcd4648c2ebe1f28ab15fec3507af869d",
    "resource": {
      "resourceType": "Observation",
      "meta": {
        "profile": [ "https://www.netzwerk-universitaetsmedizin.de/fhir/StructureDefinition/sars-cov-2-iga-ser-pl-ql-ia" ]
      },
      "identifier": [ {
        "type": {
          "coding": [ {
            "system": "http://terminology.hl7.org/CodeSystem/v2-0203",
            "code": "OBI",
            "display": "Observation Instance Identifier"
          } ]
        },
        "system": "https://mein.krankenhaus.de/fhir/NamingSystem/observationId",
        "value": "412d062928fde36e5e9aeacfa3613252115d20828a9ee7bc94426ffbddb3aeeb",
        "assigner": {
          "reference": "Organization/3a4f3433bce81181bad2d8e0b8fafccf7dc800bc06f29be73dcb38b750a48f9a"
        }
      } ],
      "status": "final",
      "category": [ {
        "coding": [ {
          "system": "http://terminology.hl7.org/CodeSystem/observation-category",
          "code": "laboratory",
          "display": "Laboratory"
        }, {
          "system": "http://loinc.org",
          "code": "26436-6"
        } ]
      } ],
      "code": {
        "coding": [ {
          "system": "http://loinc.org",
          "code": "94562-6",
          "display": "sars-cov-2-covid-19-iga-ab-in-serum-or-plasma-by-immunoassay"
        } ],
        "text": "sarsco_v2_covid19_ig_a_ia_ql"
      },
      "subject": {
        "reference": "Patient/2fcc931a70f11d9018f4c9551b38cb2a9d313e0d984d6bb22096873c1e8494cb"
      },
      "encounter": {
        "reference": "Encounter/ddfebb2e3f246cfbf1c3a5ca5481eb35fb00278b178969f0f43965653d62e938"
      },
      "effectiveDateTime": "2020-10-25T03:14:00+00:00",
      "valueCodeableConcept": {
        "coding": [ {
          "system": "http://snomed.info/sct",
          "code": "260415000"
        } ]
      }
    },
    "request": {
      "method": "POST",
      "url": "Observation",
      "ifNoneExist": "identifier=https://mein.krankenhaus.de/fhir/NamingSystem/observationId|36222bdfce111a802fdf53688a0f817fcd4648c2ebe1f28ab15fec3507af869d"
    }
  }, {
    "fullUrl": "Observation/ab4e68f289cd29182bf50850393f045120150ddabdf6bc73c9636b0fb53cb448",
    "resource": {
      "resourceType": "Observation",
      "meta": {
        "profile": [ "https://www.netzwerk-universitaetsmedizin.de/fhir/StructureDefinition/sars-cov-2-iga-ser-pl-ia-acnc" ]
      },
      "identifier": [ {
        "type": {
          "coding": [ {
            "system": "http://terminology.hl7.org/CodeSystem/v2-0203",
            "code": "OBI",
            "display": "Observation Instance Identifier"
          } ]
        },
        "system": "https://mein.krankenhaus.de/fhir/NamingSystem/observationId",
        "value": "5f58c10a786bc1272602417018c986d8473707a716d8c4fa11bdd22889c43fb1",
        "assigner": {
          "reference": "Organization/3a4f3433bce81181bad2d8e0b8fafccf7dc800bc06f29be73dcb38b750a48f9a"
        }
      } ],
      "status": "final",
      "category": [ {
        "coding": [ {
          "system": "http://terminology.hl7.org/CodeSystem/observation-category",
          "code": "laboratory",
          "display": "Laboratory"
        }, {
          "system": "http://loinc.org",
          "code": "26436-6"
        } ]
      } ],
      "code": {
        "coding": [ {
          "system": "http://loinc.org",
          "code": "94720-0",
          "display": "sars-cov-2-covid-19-iga-ab-in-serum-or-plasma-by-immunoassay"
        } ],
        "text": "sarsco_v2_covid19_ig_a_ia_qn"
      },
      "subject": {
        "reference": "Patient/2fcc931a70f11d9018f4c9551b38cb2a9d313e0d984d6bb22096873c1e8494cb"
      },
      "encounter": {
        "reference": "Encounter/ddfebb2e3f246cfbf1c3a5ca5481eb35fb00278b178969f0f43965653d62e938"
      },
      "effectiveDateTime": "2020-10-25T03:14:00+00:00",
      "valueQuantity": {
        "value": 57.65919631847844,
        "unit": "[IU]/mL",
        "system": "http://unitsofmeasure.org",
        "code": "[IU]/mL"
      }
    },
    "request": {
      "method": "POST",
      "url": "Observation",
      "ifNoneExist": "identifier=https://mein.krankenhaus.de/fhir/NamingSystem/observationId|ab4e68f289cd29182bf50850393f045120150ddabdf6bc73c9636b0fb53cb448"
    }
  }, {
    "fullUrl": "Observation/60fc07674ad04d808401ba87c43323b973645483e4689861aeb4dc81ea357fb5",
    "resource": {
      "resourceType": "Observation",
      "meta": {
        "profile": [ "https://www.netzwerk-universitaetsmedizin.de/fhir/StructureDefinition/sars-cov-2-igg-ser-pl-ql-ia" ]
      },
      "identifier": [ {
        "type": {
          "coding": [ {
            "system": "http://terminology.hl7.org/CodeSystem/v2-0203",
            "code": "OBI",
            "display": "Observation Instance Identifier"
          } ]
        },
        "system": "https://mein.krankenhaus.de/fhir/NamingSystem/observationId",
        "value": "1e6f09119bfce40fd4c2adc60c20512d3e6862c65e57a4367cdf79f2bd8fbdf5",
        "assigner": {
          "reference": "Organization/3a4f3433bce81181bad2d8e0b8fafccf7dc800bc06f29be73dcb38b750a48f9a"
        }
      } ],
      "status": "final",
      "category": [ {
        "coding": [ {
          "system": "http://terminology.hl7.org/CodeSystem/observation-category",
          "code": "laboratory",
          "display": "Laboratory"
        }, {
          "system": "http://loinc.org",
          "code": "26436-6"
        } ]
      } ],
      "code": {
        "coding": [ {
          "system": "http://loinc.org",
          "code": "94563-4",
          "display": "sars-cov-2-covid-19-igg-ab-in-serum-or-plasma-by-immunoassay"
        } ],
        "text": "sarsco_v2_covid19_ig_g_ia_ql"
      },
      "subject": {
        "reference": "Patient/2fcc931a70f11d9018f4c9551b38cb2a9d313e0d984d6bb22096873c1e8494cb"
      },
      "encounter": {
        "reference": "Encounter/ddfebb2e3f246cfbf1c3a5ca5481eb35fb00278b178969f0f43965653d62e938"
      },
      "effectiveDateTime": "2020-10-25T03:14:00+00:00",
      "valueCodeableConcept": {
        "coding": [ {
          "system": "http://snomed.info/sct",
          "code": "260373001"
        } ]
      }
    },
    "request": {
      "method": "POST",
      "url": "Observation",
      "ifNoneExist": "identifier=https://mein.krankenhaus.de/fhir/NamingSystem/observationId|60fc07674ad04d808401ba87c43323b973645483e4689861aeb4dc81ea357fb5"
    }
  }, {
    "fullUrl": "Observation/d8847a22039e245fea7acc897ae1ede0d3f9cc750edb4ede2d9115839a732e70",
    "resource": {
      "resourceType": "Observation",
      "meta": {
        "profile": [ "https://www.netzwerk-universitaetsmedizin.de/fhir/StructureDefinition/sars-cov-2-igm-ser-pl-ql-ia" ]
      },
      "identifier": [ {
        "type": {
          "coding": [ {
            "system": "http://terminology.hl7.org/CodeSystem/v2-0203",
            "code": "OBI",
            "display": "Observation Instance Identifier"
          } ]
        },
        "system": "https://mein.krankenhaus.de/fhir/NamingSystem/observationId",
        "value": "a619935dd5c92f2383af7a8829ec6c92770290bc6828825a09a9e22d183b07f1",
        "assigner": {
          "reference": "Organization/3a4f3433bce81181bad2d8e0b8fafccf7dc800bc06f29be73dcb38b750a48f9a"
        }
      } ],
      "status": "final",
      "category": [ {
        "coding": [ {
          "system": "http://terminology.hl7.org/CodeSystem/observation-category",
          "code": "laboratory",
          "display": "Laboratory"
        }, {
          "system": "http://loinc.org",
          "code": "26436-6"
        } ]
      } ],
      "code": {
        "coding": [ {
          "system": "http://loinc.org",
          "code": "94564-2",
          "display": "sars-cov-2-covid-19-igm-ab-in-serum-or-plasma-by-immunoassay"
        } ],
        "text": "sarsco_v2_covid19_ig_m_ia_ql"
      },
      "subject": {
        "reference": "Patient/2fcc931a70f11d9018f4c9551b38cb2a9d313e0d984d6bb22096873c1e8494cb"
      },
      "encounter": {
        "reference": "Encounter/ddfebb2e3f246cfbf1c3a5ca5481eb35fb00278b178969f0f43965653d62e938"
      },
      "effectiveDateTime": "2020-10-25T03:14:00+00:00",
      "valueCodeableConcept": {
        "coding": [ {
          "system": "http://snomed.info/sct",
          "code": "419984006"
        } ]
      }
    },
    "request": {
      "method": "POST",
      "url": "Observation",
      "ifNoneExist": "identifier=https://mein.krankenhaus.de/fhir/NamingSystem/observationId|d8847a22039e245fea7acc897ae1ede0d3f9cc750edb4ede2d9115839a732e70"
    }
  }, {
    "fullUrl": "Observation/2f760ee19a13be63056f95369556e8b370ea19ea421311b158e535aa5907ea49",
    "resource": {
      "resourceType": "Observation",
      "meta": {
        "profile": [ "https://www.netzwerk-universitaetsmedizin.de/fhir/StructureDefinition/sars-cov-2-igm-ser-pl-ia-acnc" ]
      },
      "identifier": [ {
        "type": {
          "coding": [ {
            "system": "http://terminology.hl7.org/CodeSystem/v2-0203",
            "code": "OBI",
            "display": "Observation Instance Identifier"
          } ]
        },
        "system": "https://mein.krankenhaus.de/fhir/NamingSystem/observationId",
        "value": "924e028994d7a1989e6bcf1e94cff8c5db22ad470052149f0b04e2b03b292f1a",
        "assigner": {
          "reference": "Organization/3a4f3433bce81181bad2d8e0b8fafccf7dc800bc06f29be73dcb38b750a48f9a"
        }
      } ],
      "status": "final",
      "category": [ {
        "coding": [ {
          "system": "http://terminology.hl7.org/CodeSystem/observation-category",
          "code": "laboratory",
          "display": "Laboratory"
        }, {
          "system": "http://loinc.org",
          "code": "26436-6"
        } ]
      } ],
      "code": {
        "coding": [ {
          "system": "http://loinc.org",
          "code": "94506-3",
          "display": "sars-cov-2-covid-19-igm-ab-in-serum-or-plasma-by-immunoassay"
        } ],
        "text": "sarsco_v2_covid19_ig_m_ia_qn"
      },
      "subject": {
        "reference": "Patient/2fcc931a70f11d9018f4c9551b38cb2a9d313e0d984d6bb22096873c1e8494cb"
      },
      "encounter": {
        "reference": "Encounter/ddfebb2e3f246cfbf1c3a5ca5481eb35fb00278b178969f0f43965653d62e938"
      },
      "effectiveDateTime": "2020-10-25T03:14:00+00:00",
      "valueQuantity": {
        "value": 54.02857945524844,
        "unit": "[arb'U]/mL",
        "system": "http://unitsofmeasure.org",
        "code": "[arb'U]/mL"
      }
    },
    "request": {
      "method": "POST",
      "url": "Observation",
      "ifNoneExist": "identifier=https://mein.krankenhaus.de/fhir/NamingSystem/observationId|2f760ee19a13be63056f95369556e8b370ea19ea421311b158e535aa5907ea49"
    }
  }, {
    "fullUrl": "MedicationStatement/3296a68847df8ab527dbd1695d9dbc9d46eb06e73501cba08ccef53fc2bce17e",
    "resource": {
      "resourceType": "MedicationStatement",
      "meta": {
        "profile": [ "https://www.netzwerk-universitaetsmedizin.de/fhir/StructureDefinition/pharmacological-therapy" ]
      },
      "identifier": [ {
        "system": "https://mein.krankenhaus.de/fhir/NamingSystem/medicationstatementId",
        "value": "6f544eff1b5e2c3d46528dece09566996cd41570fa0764cc0cc6bcc3ccbb7857"
      } ],
      "status": "unknown",
      "medicationCodeableConcept": {
        "coding": [ {
          "system": "http://snomed.info/sct",
          "code": "41549009"
        } ],
        "text": "ACE inhibitors"
      },
      "subject": {
        "reference": "Patient/2fcc931a70f11d9018f4c9551b38cb2a9d313e0d984d6bb22096873c1e8494cb"
      },
      "effectiveDateTime": "2020-06-05T18:32:00+00:00"
    },
    "request": {
      "method": "POST",
      "url": "MedicationStatement",
      "ifNoneExist": "identifier=https://mein.krankenhaus.de/fhir/NamingSystem/medicationstatementId|3296a68847df8ab527dbd1695d9dbc9d46eb06e73501cba08ccef53fc2bce17e"
    }
  }, {
    "fullUrl": "MedicationStatement/e99ad6489720b76610d356ccf7ceb40a2e82eaceadd0fef835e939b7006e4315",
    "resource": {
      "resourceType": "MedicationStatement",
      "meta": {
        "profile": [ "https://www.netzwerk-universitaetsmedizin.de/fhir/StructureDefinition/pharmacological-therapy" ]
      },
      "identifier": [ {
        "system": "https://mein.krankenhaus.de/fhir/NamingSystem/medicationstatementId",
        "value": "0a1b6c5638e8429306eb765a461be56b250ca04d7f5dac33d226a3446df967e1"
      } ],
      "status": "unknown",
      "medicationCodeableConcept": {
        "coding": [ {
          "system": "http://snomed.info/sct",
          "code": "333710000"
        } ],
        "text": "immunoglobulins"
      },
      "subject": {
        "reference": "Patient/2fcc931a70f11d9018f4c9551b38cb2a9d313e0d984d6bb22096873c1e8494cb"
      },
      "effectiveDateTime": "2020-06-05T18:32:00+00:00"
    },
    "request": {
      "method": "POST",
      "url": "MedicationStatement",
      "ifNoneExist": "identifier=https://mein.krankenhaus.de/fhir/NamingSystem/medicationstatementId|e99ad6489720b76610d356ccf7ceb40a2e82eaceadd0fef835e939b7006e4315"
    }
  }, {
    "fullUrl": "MedicationStatement/4cb40be0389864a7d8c133f3f1b0ec0932722984db79e40e73afbdea21175003",
    "resource": {
      "resourceType": "MedicationStatement",
      "meta": {
        "profile": [ "https://www.netzwerk-universitaetsmedizin.de/fhir/StructureDefinition/pharmacological-therapy" ]
      },
      "identifier": [ {
        "system": "https://mein.krankenhaus.de/fhir/NamingSystem/medicationstatementId",
        "value": "5d990e990714f6aed39202b5c0b40a033c87e9af0bc0c4daf5655b564f52a18d"
      } ],
      "status": "stopped",
      "medicationCodeableConcept": {
        "coding": [ {
          "system": "http://snomed.info/sct",
          "code": "41549009"
        } ],
        "text": "ACE inhibitors"
      },
      "subject": {
        "reference": "Patient/2fcc931a70f11d9018f4c9551b38cb2a9d313e0d984d6bb22096873c1e8494cb"
      },
      "_effectiveDateTime": {
        "extension": [ {
          "url": "http://hl7.org/fhir/StructureDefinition/data-absent-reason",
          "valueCode": "unknown"
        } ]
      }
    },
    "request": {
      "method": "POST",
      "url": "MedicationStatement",
      "ifNoneExist": "identifier=https://mein.krankenhaus.de/fhir/NamingSystem/medicationstatementId|4cb40be0389864a7d8c133f3f1b0ec0932722984db79e40e73afbdea21175003"
    }
  }, {
    "fullUrl": "MedicationStatement/36cd44fdde1ca8104f73c3531206e9a5effb7e23b854c188ee552b911bddb8d2",
    "resource": {
      "resourceType": "MedicationStatement",
      "meta": {
        "profile": [ "https://www.netzwerk-universitaetsmedizin.de/fhir/StructureDefinition/pharmacological-therapy" ]
      },
      "identifier": [ {
        "system": "https://mein.krankenhaus.de/fhir/NamingSystem/medicationstatementId",
        "value": "0b075897cf369f477c70f09261e084c6a439c6710167988e6943bd859c46ec96"
      } ],
      "status": "not-taken",
      "medicationCodeableConcept": {
        "coding": [ {
          "system": "http://snomed.info/sct",
          "code": "333710000"
        } ],
        "text": "immunoglobulins"
      },
      "subject": {
        "reference": "Patient/2fcc931a70f11d9018f4c9551b38cb2a9d313e0d984d6bb22096873c1e8494cb"
      },
      "_effectiveDateTime": {
        "extension": [ {
          "url": "http://hl7.org/fhir/StructureDefinition/data-absent-reason",
          "valueCode": "unknown"
        } ]
      }
    },
    "request": {
      "method": "POST",
      "url": "MedicationStatement",
      "ifNoneExist": "identifier=https://mein.krankenhaus.de/fhir/NamingSystem/medicationstatementId|36cd44fdde1ca8104f73c3531206e9a5effb7e23b854c188ee552b911bddb8d2"
    }
  }, {
    "fullUrl": "Observation/b15bd0ed37b6a4419b867d93d252de7ad88a14dc7887d9e07c7ab2477dd5e8f9",
    "resource": {
      "resourceType": "Observation",
      "meta": {
        "profile": [ "https://www.netzwerk-universitaetsmedizin.de/fhir/StructureDefinition/study-inclusion-covid-19" ]
      },
      "identifier": [ {
        "type": {
          "coding": [ {
            "system": "http://terminology.hl7.org/CodeSystem/v2-0203",
            "code": "OBI",
            "display": "Observation Instance Identifier"
          } ]
        },
        "system": "https://mein.krankenhaus.de/fhir/NamingSystem/observationId",
        "value": "381e29ff944a6b2ebe26f6ea145b77dbe079c74a50dbd46d50c477a4db448649",
        "assigner": {
          "reference": "Organization/3a4f3433bce81181bad2d8e0b8fafccf7dc800bc06f29be73dcb38b750a48f9a"
        }
      } ],
      "status": "final",
      "category": [ {
        "coding": [ {
          "system": "http://terminology.hl7.org/CodeSystem/observation-category",
          "code": "survey",
          "display": "Survey"
        } ]
      } ],
      "code": {
        "coding": [ {
          "system": "https://www.netzwerk-universitaetsmedizin.de/fhir/CodeSystem/ecrf-parameter-codes",
          "code": "02",
          "display": "Study inclusion due to Covid-19"
        } ],
        "text": "Confirmed Covid-19 diagnosis as main reason for enrolment in the study"
      },
      "subject": {
        "reference": "Patient/2fcc931a70f11d9018f4c9551b38cb2a9d313e0d984d6bb22096873c1e8494cb"
      },
      "_effectiveDateTime": {
        "extension": [ {
          "url": "http://hl7.org/fhir/StructureDefinition/data-absent-reason",
          "valueCode": "unknown"
        } ]
      },
      "valueCodeableConcept": {
        "coding": [ {
          "system": "http://snomed.info/sct",
          "code": "261665006"
        } ]
      }
    },
    "request": {
      "method": "POST",
      "url": "Observation",
      "ifNoneExist": "identifier=https://mein.krankenhaus.de/fhir/NamingSystem/observationId|b15bd0ed37b6a4419b867d93d252de7ad88a14dc7887d9e07c7ab2477dd5e8f9"
    }
  }, {
    "fullUrl": "Observation/dc22f0cab277abd7384df321d8c43d617bf9d8c55dd1babb4474c971f290988a",
    "resource": {
      "resourceType": "Observation",
      "meta": {
        "profile": [ "https://www.netzwerk-universitaetsmedizin.de/fhir/StructureDefinition/interventional-clinical-trial-participation" ]
      },
      "identifier": [ {
        "type": {
          "coding": [ {
            "system": "http://terminology.hl7.org/CodeSystem/v2-0203",
            "code": "OBI",
            "display": "Observation Instance Identifier"
          } ]
        },
        "system": "https://mein.krankenhaus.de/fhir/NamingSystem/observationId",
        "value": "bff5cb9c77f7ebcfe474eceee89f7e35d81274ef928eea3d6afb4bee1e0db559",
        "assigner": {
          "reference": "Organization/3a4f3433bce81181bad2d8e0b8fafccf7dc800bc06f29be73dcb38b750a48f9a"
        }
      } ],
      "status": "final",
      "category": [ {
        "coding": [ {
          "system": "http://terminology.hl7.org/CodeSystem/observation-category",
          "code": "survey",
          "display": "Survey"
        } ]
      } ],
      "code": {
        "coding": [ {
          "system": "https://www.netzwerk-universitaetsmedizin.de/fhir/CodeSystem/ecrf-parameter-codes",
          "code": "03",
          "display": "Participation in interventional clinical trials"
        } ],
        "text": "Has the patient participated in one or more interventional clinical trials?"
      },
      "subject": {
        "reference": "Patient/2fcc931a70f11d9018f4c9551b38cb2a9d313e0d984d6bb22096873c1e8494cb"
      },
      "_effectiveDateTime": {
        "extension": [ {
          "url": "http://hl7.org/fhir/StructureDefinition/data-absent-reason",
          "valueCode": "unknown"
        } ]
      },
      "valueCodeableConcept": {
        "coding": [ {
          "system": "http://snomed.info/sct",
          "code": "373066001"
        } ]
      }
    },
    "request": {
      "method": "POST",
      "url": "Observation",
      "ifNoneExist": "identifier=https://mein.krankenhaus.de/fhir/NamingSystem/observationId|dc22f0cab277abd7384df321d8c43d617bf9d8c55dd1babb4474c971f290988a"
    }
  } ]
}