{
  "resourceType": "Bundle",
  "meta": {
    "profile": [ "https://www.netzwerk-universitaetsmedizin.de/fhir/StructureDefinition/gecco-bundle" ]
  },
  "type": "transaction",
  "entry": [ {
    "fullUrl": "Patient/d257b1da81b09f2cd05310abe5f920df6a9202de1cc371159676d11b1ff5696f",
    "resource": {
      "resourceType": "Patient",
      "meta": {
        "profile": [ "https://www.netzwerk-universitaetsmedizin.de/fhir/StructureDefinition/Patient" ]
      },
      "extension": [ {
        "url": "https://www.netzwerk-universitaetsmedizin.de/fhir/StructureDefinition/age",
        "extension": [ {
          "url": "dateTimeOfDocumentation",
          "_valueDateTime": {
            "extension": [ {
              "url": "http://hl7.org/fhir/StructureDefinition/data-absent-reason",
              "valueCode": "unknown"
            } ]
          }
        }, {
          "url": "age",
          "valueAge": {
            "value": 92,
            "unit": "years",
            "system": "http://unitsofmeasure.org",
            "code": "a"
          }
        } ]
      }, {
        "url": "https://www.netzwerk-universitaetsmedizin.de/fhir/StructureDefinition/ethnic-group",
        "valueCoding": {
          "system": "http://snomed.info/sct",
          "code": "18167009"
        }
      } ],
      "identifier": [ {
        "type": {
          "coding": [ {
            "system": "http://terminology.hl7.org/CodeSystem/v2-0203",
            "code": "MR"
          } ]
        },
        "system": "https://mein.krankenhaus.de/fhir/NamingSystem/patientId",
        "value": "synthetic_patient_591892378",
        "assigner": {
          "reference": "Organization/3a4f3433bce81181bad2d8e0b8fafccf7dc800bc06f29be73dcb38b750a48f9a"
        }
      } ],
      "birthDate": "1928-12-09"
    },
    "request": {
      "method": "POST",
      "url": "Patient",
      "ifNoneExist": "identifier=https://mein.krankenhaus.de/fhir/NamingSystem/patientId|d257b1da81b09f2cd05310abe5f920df6a9202de1cc371159676d11b1ff5696f"
    }
  }, {
    "fullUrl": "Organization/3a4f3433bce81181bad2d8e0b8fafccf7dc800bc06f29be73dcb38b750a48f9a",
    "resource": {
      "resourceType": "Organization",
      "name": "Mein Krankenhaus"
    },
    "request": {
      "method": "POST",
      "url": "Organization",
      "ifNoneExist": "identifier=null|3a4f3433bce81181bad2d8e0b8fafccf7dc800bc06f29be73dcb38b750a48f9a"
    }
  }, {
    "fullUrl": "Encounter/c29c6edd49167c69995b139fa51a4a3c149516808d5bf146ab5291ad4a8b7ae8",
    "resource": {
      "resourceType": "Encounter",
      "identifier": [ {
        "system": "https://mein.krankenhaus.de/fhir/NamingSystem/encounterId",
        "value": "ec1f9346c04397d72bea97fb4ef5e4f785b6ee4fd99b9d95a92ecf3c60c9c9a0",
        "assigner": {
          "reference": "Organization/3a4f3433bce81181bad2d8e0b8fafccf7dc800bc06f29be73dcb38b750a48f9a"
        }
      } ],
      "status": "unknown",
      "class": {
        "system": "http://terminology.hl7.org/CodeSystem/v3-ActCode",
        "code": "IMP",
        "display": "inpatient encounter"
      },
      "subject": {
        "reference": "Patient/d257b1da81b09f2cd05310abe5f920df6a9202de1cc371159676d11b1ff5696f"
      }
    },
    "request": {
      "method": "POST",
      "url": "Encounter",
      "ifNoneExist": "identifier=https://mein.krankenhaus.de/fhir/NamingSystem/encounterId|c29c6edd49167c69995b139fa51a4a3c149516808d5bf146ab5291ad4a8b7ae8"
    }
  }, {
    "fullUrl": "Condition/5bf8d016aaceea619f1680e94d045bcff75eab15d03a63b188be1325b3ca1686",
    "resource": {
      "resourceType": "Condition",
      "meta": {
        "profile": [ "https://www.netzwerk-universitaetsmedizin.de/fhir/StructureDefinition/diagnosis-covid-19" ]
      },
      "identifier": [ {
        "system": "https://mein.krankenhaus.de/fhir/NamingSystem/conditionId",
        "value": "b266ba5e76dcc06959b813a5a42e1de5583e93ea8972de6976b82d0fc823b033"
      } ],
      "clinicalStatus": {
        "coding": [ {
          "system": "http://terminology.hl7.org/CodeSystem/condition-clinical",
          "code": "active",
          "display": "Active"
        } ]
      },
      "verificationStatus": {
        "coding": [ {
          "system": "http://terminology.hl7.org/CodeSystem/condition-ver-status",
          "code": "confirmed",
          "display": "Confirmed"
        }, {
          "system": "http://snomed.info/sct",
          "code": "410605003",
          "display": "Confirmed present (qualifier value)"
        } ]
      },
      "category": [ {
        "coding": [ {
          "system": "http://snomed.info/sct",
          "code": "394807007",
          "display": "Infectious diseases (specialty) (qualifier value)"
        } ]
      } ],
      "code": {
        "coding": [ {
          "system": "http://snomed.info/sct",
          "code": "840539006",
          "display": "Disease caused by Severe acute respiratory syndrome coronavirus 2 (disorder)"
        } ]
      },
      "subject": {
        "reference": "Patient/d257b1da81b09f2cd05310abe5f920df6a9202de1cc371159676d11b1ff5696f"
      },
      "encounter": {
        "reference": "Encounter/c29c6edd49167c69995b139fa51a4a3c149516808d5bf146ab5291ad4a8b7ae8"
      },
      "_recordedDate": {
        "extension": [ {
          "url": "http://hl7.org/fhir/StructureDefinition/data-absent-reason",
          "valueCode": "unknown"
        } ]
      },
      "stage": [ {
        "summary": {
          "coding": [ {
            "system": "http://snomed.info/sct",
            "code": "261665006"
          } ]
        },
        "type": {
          "coding": [ {
            "system": "http://loinc.org",
            "code": "88859-4"
          } ]
        }
      } ]
    },
    "request": {
      "method": "POST",
      "url": "Condition",
      "ifNoneExist": "identifier=https://mein.krankenhaus.de/fhir/NamingSystem/conditionId|5bf8d016aaceea619f1680e94d045bcff75eab15d03a63b188be1325b3ca1686"
    }
  }, {
    "fullUrl": "Condition/cd809d682fb24368288aba4fed3e666182b08e65eb40afc6b637d1d86b7a74ca",
    "resource": {
      "resourceType": "Condition",
      "meta": {
        "profile": [ "https://www.netzwerk-universitaetsmedizin.de/fhir/StructureDefinition/rheumatological-immunological-diseases" ]
      },
      "identifier": [ {
        "system": "https://mein.krankenhaus.de/fhir/NamingSystem/conditionId",
        "value": "7502098008baf63d4826e2e44e6ab960728614f5e1af425eb130c445bea22111"
      } ],
      "verificationStatus": {
        "coding": [ {
          "system": "http://terminology.hl7.org/CodeSystem/condition-ver-status",
          "code": "refuted",
          "display": "Refuted"
        }, {
          "system": "http://snomed.info/sct",
          "code": "410594000",
          "display": "Definitely NOT present (qualifier value)"
        } ]
      },
      "category": [ {
        "coding": [ {
          "system": "http://snomed.info/sct",
          "code": "394810000",
          "display": "Rheumatology (qualifier value)"
        }, {
          "system": "http://snomed.info/sct",
          "code": "408480009",
          "display": "Clinical immunology (qualifier value)"
        } ]
      } ],
      "code": {
        "coding": [ {
          "system": "http://fhir.de/CodeSystem/dimdi/icd-10-gm",
          "version": "2021",
          "code": "M06.99"
        }, {
          "system": "http://snomed.info/sct",
          "code": "69896004"
        } ]
      },
      "subject": {
        "reference": "Patient/d257b1da81b09f2cd05310abe5f920df6a9202de1cc371159676d11b1ff5696f"
      },
      "encounter": {
        "reference": "Encounter/c29c6edd49167c69995b139fa51a4a3c149516808d5bf146ab5291ad4a8b7ae8"
      },
      "_recordedDate": {
        "extension": [ {
          "url": "http://hl7.org/fhir/StructureDefinition/data-absent-reason",
          "valueCode": "unknown"
        } ]
      }
    },
    "request": {
      "method": "POST",
      "url": "Condition",
      "ifNoneExist": "identifier=https://mein.krankenhaus.de/fhir/NamingSystem/conditionId|cd809d682fb24368288aba4fed3e666182b08e65eb40afc6b637d1d86b7a74ca"
    }
  }, {
    "fullUrl": "Condition/9333f27c802c054bce9c8d9ddad07da189d841b88b240e748dfcfc0eec090e1f",
    "resource": {
      "resourceType": "Condition",
      "meta": {
        "profile": [ "https://www.netzwerk-universitaetsmedizin.de/fhir/StructureDefinition/rheumatological-immunological-diseases" ]
      },
      "modifierExtension": [ {
        "url": "https://www.netzwerk-universitaetsmedizin.de/fhir/StructureDefinition/uncertainty-of-presence",
        "valueCodeableConcept": {
          "coding": [ {
            "system": "http://snomed.info/sct",
            "code": "261665006",
            "display": "Unknown (qualifier value)"
          } ],
          "text": "Presence unknown."
        }
      } ],
      "identifier": [ {
        "system": "https://mein.krankenhaus.de/fhir/NamingSystem/conditionId",
        "value": "e70ac9b936e2c8e7560096e092fa3038833f9573df06acbc225ce0bb5c975ced"
      } ],
      "category": [ {
        "coding": [ {
          "system": "http://snomed.info/sct",
          "code": "394810000",
          "display": "Rheumatology (qualifier value)"
        }, {
          "system": "http://snomed.info/sct",
          "code": "408480009",
          "display": "Clinical immunology (qualifier value)"
        } ]
      } ],
      "code": {
        "coding": [ {
          "system": "http://fhir.de/CodeSystem/dimdi/icd-10-gm",
          "version": "2021",
          "code": "M35.9"
        }, {
          "system": "http://snomed.info/sct",
          "code": "105969002"
        } ]
      },
      "subject": {
        "reference": "Patient/d257b1da81b09f2cd05310abe5f920df6a9202de1cc371159676d11b1ff5696f"
      },
      "encounter": {
        "reference": "Encounter/c29c6edd49167c69995b139fa51a4a3c149516808d5bf146ab5291ad4a8b7ae8"
      },
      "_recordedDate": {
        "extension": [ {
          "url": "http://hl7.org/fhir/StructureDefinition/data-absent-reason",
          "valueCode": "unknown"
        } ]
      }
    },
    "request": {
      "method": "POST",
      "url": "Condition",
      "ifNoneExist": "identifier=https://mein.krankenhaus.de/fhir/NamingSystem/conditionId|9333f27c802c054bce9c8d9ddad07da189d841b88b240e748dfcfc0eec090e1f"
    }
  }, {
    "fullUrl": "Condition/61505cf3681d8672bbd5ecfe8da5fad9230cb0d97126e14406f6368d28ad2108",
    "resource": {
      "resourceType": "Condition",
      "meta": {
        "profile": [ "https://www.netzwerk-universitaetsmedizin.de/fhir/StructureDefinition/rheumatological-immunological-diseases" ]
      },
      "identifier": [ {
        "system": "https://mein.krankenhaus.de/fhir/NamingSystem/conditionId",
        "value": "3aa9fbec5a249857c71d87a8dba066f2b54c97f1dd3f71aeb7eab0de86457276"
      } ],
      "clinicalStatus": {
        "coding": [ {
          "system": "http://terminology.hl7.org/CodeSystem/condition-clinical",
          "code": "active",
          "display": "Active"
        } ]
      },
      "verificationStatus": {
        "coding": [ {
          "system": "http://terminology.hl7.org/CodeSystem/condition-ver-status",
          "code": "confirmed",
          "display": "Confirmed"
        }, {
          "system": "http://snomed.info/sct",
          "code": "410605003",
          "display": "Confirmed present (qualifier value)"
        } ]
      },
      "category": [ {
        "coding": [ {
          "system": "http://snomed.info/sct",
          "code": "394810000",
          "display": "Rheumatology (qualifier value)"
        }, {
          "system": "http://snomed.info/sct",
          "code": "408480009",
          "display": "Clinical immunology (qualifier value)"
        } ]
      } ],
      "code": {
        "coding": [ {
          "system": "http://fhir.de/CodeSystem/dimdi/icd-10-gm",
          "version": "2021",
          "code": "I77.6"
        }, {
          "system": "http://snomed.info/sct",
          "code": "31996006"
        } ]
      },
      "subject": {
        "reference": "Patient/d257b1da81b09f2cd05310abe5f920df6a9202de1cc371159676d11b1ff5696f"
      },
      "encounter": {
        "reference": "Encounter/c29c6edd49167c69995b139fa51a4a3c149516808d5bf146ab5291ad4a8b7ae8"
      },
      "_recordedDate": {
        "extension": [ {
          "url": "http://hl7.org/fhir/StructureDefinition/data-absent-reason",
          "valueCode": "unknown"
        } ]
      }
    },
    "request": {
      "method": "POST",
      "url": "Condition",
      "ifNoneExist": "identifier=https://mein.krankenhaus.de/fhir/NamingSystem/conditionId|61505cf3681d8672bbd5ecfe8da5fad9230cb0d97126e14406f6368d28ad2108"
    }
  }, {
    "fullUrl": "Condition/338bfdf8e23558eeecf451309156ba5b7c28a2f6aa675a0b343a4de98b3c20e3",
    "resource": {
      "resourceType": "Condition",
      "meta": {
        "profile": [ "https://www.netzwerk-universitaetsmedizin.de/fhir/StructureDefinition/rheumatological-immunological-diseases" ]
      },
      "identifier": [ {
        "system": "https://mein.krankenhaus.de/fhir/NamingSystem/conditionId",
        "value": "2a3bcee8b707670145c817830c1c67aef72c2439687910ee49db58739dfabbb2"
      } ],
      "verificationStatus": {
        "coding": [ {
          "system": "http://terminology.hl7.org/CodeSystem/condition-ver-status",
          "code": "refuted",
          "display": "Refuted"
        }, {
          "system": "http://snomed.info/sct",
          "code": "410594000",
          "display": "Definitely NOT present (qualifier value)"
        } ]
      },
      "category": [ {
        "coding": [ {
          "system": "http://snomed.info/sct",
          "code": "394810000",
          "display": "Rheumatology (qualifier value)"
        }, {
          "system": "http://snomed.info/sct",
          "code": "408480009",
          "display": "Clinical immunology (qualifier value)"
        } ]
      } ],
      "code": {
        "coding": [ {
          "system": "http://fhir.de/CodeSystem/dimdi/icd-10-gm",
          "version": "2021",
          "code": "D84.8"
        }, {
          "system": "http://snomed.info/sct",
          "code": "36138009"
        } ]
      },
      "subject": {
        "reference": "Patient/d257b1da81b09f2cd05310abe5f920df6a9202de1cc371159676d11b1ff5696f"
      },
      "encounter": {
        "reference": "Encounter/c29c6edd49167c69995b139fa51a4a3c149516808d5bf146ab5291ad4a8b7ae8"
      },
      "_recordedDate": {
        "extension": [ {
          "url": "http://hl7.org/fhir/StructureDefinition/data-absent-reason",
          "valueCode": "unknown"
        } ]
      }
    },
    "request": {
      "method": "POST",
      "url": "Condition",
      "ifNoneExist": "identifier=https://mein.krankenhaus.de/fhir/NamingSystem/conditionId|338bfdf8e23558eeecf451309156ba5b7c28a2f6aa675a0b343a4de98b3c20e3"
    }
  }, {
    "fullUrl": "Condition/579c22939ecc53572c5de7a3315f31a549bcf2e9eff00bbbd5cb1e2e7ab958c7",
    "resource": {
      "resourceType": "Condition",
      "meta": {
        "profile": [ "https://www.netzwerk-universitaetsmedizin.de/fhir/StructureDefinition/rheumatological-immunological-diseases" ]
      },
      "identifier": [ {
        "system": "https://mein.krankenhaus.de/fhir/NamingSystem/conditionId",
        "value": "5cf53b22f9e43ab6e2d4eb0633e32a67dad6ac693686ca7ef726459e8bc74718"
      } ],
      "verificationStatus": {
        "coding": [ {
          "system": "http://terminology.hl7.org/CodeSystem/condition-ver-status",
          "code": "refuted",
          "display": "Refuted"
        }, {
          "system": "http://snomed.info/sct",
          "code": "410594000",
          "display": "Definitely NOT present (qualifier value)"
        } ]
      },
      "category": [ {
        "coding": [ {
          "system": "http://snomed.info/sct",
          "code": "394810000",
          "display": "Rheumatology (qualifier value)"
        }, {
          "system": "http://snomed.info/sct",
          "code": "408480009",
          "display": "Clinical immunology (qualifier value)"
        } ]
      } ],
      "code": {
        "coding": [ {
          "system": "http://fhir.de/CodeSystem/dimdi/icd-10-gm",
          "version": "2021",
          "code": "D84.8"
        }, {
          "system": "http://snomed.info/sct",
          "code": "396332003+414029004"
        } ]
      },
      "subject": {
        "reference": "Patient/d257b1da81b09f2cd05310abe5f920df6a9202de1cc371159676d11b1ff5696f"
      },
      "encounter": {
        "reference": "Encounter/c29c6edd49167c69995b139fa51a4a3c149516808d5bf146ab5291ad4a8b7ae8"
      },
      "_recordedDate": {
        "extension": [ {
          "url": "http://hl7.org/fhir/StructureDefinition/data-absent-reason",
          "valueCode": "unknown"
        } ]
      }
    },
    "request": {
      "method": "POST",
      "url": "Condition",
      "ifNoneExist": "identifier=https://mein.krankenhaus.de/fhir/NamingSystem/conditionId|579c22939ecc53572c5de7a3315f31a549bcf2e9eff00bbbd5cb1e2e7ab958c7"
    }
  }, {
    "fullUrl": "Condition/9f438923efeec9feeec7162b5cbd1b1fade66fe43e1bdaf1e5af397f494899bd",
    "resource": {
      "resourceType": "Condition",
      "meta": {
        "profile": [ "https://www.netzwerk-universitaetsmedizin.de/fhir/StructureDefinition/human-immunodeficiency-virus-infection" ]
      },
      "modifierExtension": [ {
        "url": "https://www.netzwerk-universitaetsmedizin.de/fhir/StructureDefinition/uncertainty-of-presence",
        "valueCodeableConcept": {
          "coding": [ {
            "system": "http://snomed.info/sct",
            "code": "261665006",
            "display": "Unknown (qualifier value)"
          } ],
          "text": "Presence unknown."
        }
      } ],
      "identifier": [ {
        "system": "https://mein.krankenhaus.de/fhir/NamingSystem/conditionId",
        "value": "6253fb32cd10e42db9ebf23758554b19d0913eff42f7991e0673e9ef9f077bdd"
      } ],
      "category": [ {
        "coding": [ {
          "system": "http://snomed.info/sct",
          "code": "394807007",
          "display": "Infectious diseases (specialty) (qualifier value)"
        } ]
      } ],
      "code": {
        "coding": [ {
          "system": "http://fhir.de/CodeSystem/dimdi/icd-10-gm",
          "version": "2021",
          "code": "B24"
        }, {
          "system": "http://snomed.info/sct",
          "code": "86406008"
        } ]
      },
      "subject": {
        "reference": "Patient/d257b1da81b09f2cd05310abe5f920df6a9202de1cc371159676d11b1ff5696f"
      },
      "encounter": {
        "reference": "Encounter/c29c6edd49167c69995b139fa51a4a3c149516808d5bf146ab5291ad4a8b7ae8"
      },
      "_recordedDate": {
        "extension": [ {
          "url": "http://hl7.org/fhir/StructureDefinition/data-absent-reason",
          "valueCode": "unknown"
        } ]
      }
    },
    "request": {
      "method": "POST",
      "url": "Condition",
      "ifNoneExist": "identifier=https://mein.krankenhaus.de/fhir/NamingSystem/conditionId|9f438923efeec9feeec7162b5cbd1b1fade66fe43e1bdaf1e5af397f494899bd"
    }
  }, {
    "fullUrl": "Condition/46703fe8f67d9dda42572a4d7c6294d628887bc5e63ef780bd67bc22de5a8a0d",
    "resource": {
      "resourceType": "Condition",
      "meta": {
        "profile": [ "https://www.netzwerk-universitaetsmedizin.de/fhir/StructureDefinition/diabetes-mellitus" ]
      },
      "identifier": [ {
        "system": "https://mein.krankenhaus.de/fhir/NamingSystem/conditionId",
        "value": "c0ea803d2036e40b688d15eade3e743b31fddf79e2229adb0175327551fc4c04"
      } ],
      "verificationStatus": {
        "coding": [ {
          "system": "http://terminology.hl7.org/CodeSystem/condition-ver-status",
          "code": "confirmed",
          "display": "Confirmed"
        }, {
          "system": "http://snomed.info/sct",
          "code": "410605003",
          "display": "Confirmed present (qualifier value)"
        } ]
      },
      "category": [ {
        "coding": [ {
          "system": "http://snomed.info/sct",
          "code": "408475000",
          "display": "Diabetic medicine (qualifier value)"
        } ]
      } ],
      "code": {
        "coding": [ {
          "system": "http://fhir.de/CodeSystem/dimdi/icd-10-gm",
          "version": "2021",
          "code": "E11.9"
        }, {
          "system": "http://snomed.info/sct",
          "code": "44054006"
        } ]
      },
      "subject": {
        "reference": "Patient/d257b1da81b09f2cd05310abe5f920df6a9202de1cc371159676d11b1ff5696f"
      },
      "encounter": {
        "reference": "Encounter/c29c6edd49167c69995b139fa51a4a3c149516808d5bf146ab5291ad4a8b7ae8"
      },
      "_recordedDate": {
        "extension": [ {
          "url": "http://hl7.org/fhir/StructureDefinition/data-absent-reason",
          "valueCode": "unknown"
        } ]
      }
    },
    "request": {
      "method": "POST",
      "url": "Condition",
      "ifNoneExist": "identifier=https://mein.krankenhaus.de/fhir/NamingSystem/conditionId|46703fe8f67d9dda42572a4d7c6294d628887bc5e63ef780bd67bc22de5a8a0d"
    }
  }, {
    "fullUrl": "Condition/6c1880b45fd5bd3e91e0502e215d00f8c2aa716b134b9b5d782a78a15d5adf6e",
    "resource": {
      "resourceType": "Condition",
      "meta": {
        "profile": [ "https://www.netzwerk-universitaetsmedizin.de/fhir/StructureDefinition/malignant-neoplastic-disease" ]
      },
      "modifierExtension": [ {
        "url": "https://www.netzwerk-universitaetsmedizin.de/fhir/StructureDefinition/uncertainty-of-presence",
        "valueCodeableConcept": {
          "coding": [ {
            "system": "http://snomed.info/sct",
            "code": "261665006",
            "display": "Unknown (qualifier value)"
          } ],
          "text": "Presence unknown."
        }
      } ],
      "identifier": [ {
        "system": "https://mein.krankenhaus.de/fhir/NamingSystem/conditionId",
        "value": "44911972b517068f13ba3fa6c3f7bfd188868a0674ebbb05fcd8033f1c503637"
      } ],
      "category": [ {
        "coding": [ {
          "system": "http://snomed.info/sct",
          "code": "394593009",
          "display": "Medical oncology (qualifier value)"
        } ]
      } ],
      "code": {
        "coding": [ {
          "system": "http://fhir.de/CodeSystem/dimdi/icd-10-gm",
          "version": "2021",
          "code": "C80.9"
        }, {
          "system": "http://snomed.info/sct",
          "code": "363346000"
        } ]
      },
      "subject": {
        "reference": "Patient/d257b1da81b09f2cd05310abe5f920df6a9202de1cc371159676d11b1ff5696f"
      },
      "encounter": {
        "reference": "Encounter/c29c6edd49167c69995b139fa51a4a3c149516808d5bf146ab5291ad4a8b7ae8"
      },
      "_recordedDate": {
        "extension": [ {
          "url": "http://hl7.org/fhir/StructureDefinition/data-absent-reason",
          "valueCode": "unknown"
        } ]
      }
    },
    "request": {
      "method": "POST",
      "url": "Condition",
      "ifNoneExist": "identifier=https://mein.krankenhaus.de/fhir/NamingSystem/conditionId|6c1880b45fd5bd3e91e0502e215d00f8c2aa716b134b9b5d782a78a15d5adf6e"
    }
  }, {
    "fullUrl": "Condition/e70b7d61b06a6abc216cec8a3015aeed5d2e315521528b217760b0a6c73f9632",
    "resource": {
      "resourceType": "Condition",
      "meta": {
        "profile": [ "https://www.netzwerk-universitaetsmedizin.de/fhir/StructureDefinition/chronic-neurological-mental-diseases" ]
      },
      "identifier": [ {
        "system": "https://mein.krankenhaus.de/fhir/NamingSystem/conditionId",
        "value": "cf1ff26c08c234420a8dcae88042f88cd2c4ef9443ac7275011c5521f7d2ae37"
      } ],
      "verificationStatus": {
        "coding": [ {
          "system": "http://terminology.hl7.org/CodeSystem/condition-ver-status",
          "code": "refuted",
          "display": "Refuted"
        }, {
          "system": "http://snomed.info/sct",
          "code": "410594000",
          "display": "Definitely NOT present (qualifier value)"
        } ]
      },
      "category": [ {
        "coding": [ {
          "system": "http://snomed.info/sct",
          "code": "394591006",
          "display": "Neurology (qualifier value)"
        }, {
          "system": "http://snomed.info/sct",
          "code": "394587001",
          "display": "Psychiatry (qualifier value)"
        } ]
      } ],
      "code": {
        "coding": [ {
          "system": "http://fhir.de/CodeSystem/dimdi/icd-10-gm",
          "version": "2021",
          "code": "G20"
        }, {
          "system": "http://snomed.info/sct",
          "code": "49049000"
        } ]
      },
      "subject": {
        "reference": "Patient/d257b1da81b09f2cd05310abe5f920df6a9202de1cc371159676d11b1ff5696f"
      },
      "encounter": {
        "reference": "Encounter/c29c6edd49167c69995b139fa51a4a3c149516808d5bf146ab5291ad4a8b7ae8"
      },
      "_recordedDate": {
        "extension": [ {
          "url": "http://hl7.org/fhir/StructureDefinition/data-absent-reason",
          "valueCode": "unknown"
        } ]
      }
    },
    "request": {
      "method": "POST",
      "url": "Condition",
      "ifNoneExist": "identifier=https://mein.krankenhaus.de/fhir/NamingSystem/conditionId|e70b7d61b06a6abc216cec8a3015aeed5d2e315521528b217760b0a6c73f9632"
    }
  }, {
    "fullUrl": "Condition/821f30a5e4e51ecfa1b7a30f1f482f53ccabb959103ad377da90e03178227214",
    "resource": {
      "resourceType": "Condition",
      "meta": {
        "profile": [ "https://www.netzwerk-universitaetsmedizin.de/fhir/StructureDefinition/chronic-neurological-mental-diseases" ]
      },
      "modifierExtension": [ {
        "url": "https://www.netzwerk-universitaetsmedizin.de/fhir/StructureDefinition/uncertainty-of-presence",
        "valueCodeableConcept": {
          "coding": [ {
            "system": "http://snomed.info/sct",
            "code": "261665006",
            "display": "Unknown (qualifier value)"
          } ],
          "text": "Presence unknown."
        }
      } ],
      "identifier": [ {
        "system": "https://mein.krankenhaus.de/fhir/NamingSystem/conditionId",
        "value": "d31669685e69178104de7896e19b3e3be76c2763680de152842779ce609e1234"
      } ],
      "category": [ {
        "coding": [ {
          "system": "http://snomed.info/sct",
          "code": "394591006",
          "display": "Neurology (qualifier value)"
        }, {
          "system": "http://snomed.info/sct",
          "code": "394587001",
          "display": "Psychiatry (qualifier value)"
        } ]
      } ],
      "code": {
        "coding": [ {
          "system": "http://fhir.de/CodeSystem/dimdi/icd-10-gm",
          "version": "2021",
          "code": "F03"
        }, {
          "system": "http://snomed.info/sct",
          "code": "52448006"
        } ]
      },
      "subject": {
        "reference": "Patient/d257b1da81b09f2cd05310abe5f920df6a9202de1cc371159676d11b1ff5696f"
      },
      "encounter": {
        "reference": "Encounter/c29c6edd49167c69995b139fa51a4a3c149516808d5bf146ab5291ad4a8b7ae8"
      },
      "_recordedDate": {
        "extension": [ {
          "url": "http://hl7.org/fhir/StructureDefinition/data-absent-reason",
          "valueCode": "unknown"
        } ]
      }
    },
    "request": {
      "method": "POST",
      "url": "Condition",
      "ifNoneExist": "identifier=https://mein.krankenhaus.de/fhir/NamingSystem/conditionId|821f30a5e4e51ecfa1b7a30f1f482f53ccabb959103ad377da90e03178227214"
    }
  }, {
    "fullUrl": "Condition/82f354327f5cda186f33dd7920ef2c42e90e5cc674dcda1ccf020d686c9a066c",
    "resource": {
      "resourceType": "Condition",
      "meta": {
        "profile": [ "https://www.netzwerk-universitaetsmedizin.de/fhir/StructureDefinition/chronic-neurological-mental-diseases" ]
      },
      "identifier": [ {
        "system": "https://mein.krankenhaus.de/fhir/NamingSystem/conditionId",
        "value": "0386b1c08130adf2820e8f872f3657eba54cb1e48304bc7b5c3b73b13e4990e5"
      } ],
      "verificationStatus": {
        "coding": [ {
          "system": "http://terminology.hl7.org/CodeSystem/condition-ver-status",
          "code": "refuted",
          "display": "Refuted"
        }, {
          "system": "http://snomed.info/sct",
          "code": "410594000",
          "display": "Definitely NOT present (qualifier value)"
        } ]
      },
      "category": [ {
        "coding": [ {
          "system": "http://snomed.info/sct",
          "code": "394591006",
          "display": "Neurology (qualifier value)"
        }, {
          "system": "http://snomed.info/sct",
          "code": "394587001",
          "display": "Psychiatry (qualifier value)"
        } ]
      } ],
      "code": {
        "coding": [ {
          "system": "http://fhir.de/CodeSystem/dimdi/icd-10-gm",
          "version": "2021",
          "code": "G35"
        }, {
          "system": "http://snomed.info/sct",
          "code": "24700007"
        } ]
      },
      "subject": {
        "reference": "Patient/d257b1da81b09f2cd05310abe5f920df6a9202de1cc371159676d11b1ff5696f"
      },
      "encounter": {
        "reference": "Encounter/c29c6edd49167c69995b139fa51a4a3c149516808d5bf146ab5291ad4a8b7ae8"
      },
      "_recordedDate": {
        "extension": [ {
          "url": "http://hl7.org/fhir/StructureDefinition/data-absent-reason",
          "valueCode": "unknown"
        } ]
      }
    },
    "request": {
      "method": "POST",
      "url": "Condition",
      "ifNoneExist": "identifier=https://mein.krankenhaus.de/fhir/NamingSystem/conditionId|82f354327f5cda186f33dd7920ef2c42e90e5cc674dcda1ccf020d686c9a066c"
    }
  }, {
    "fullUrl": "Condition/4c14dcbcb6563252da138049fa936eb32c85db22b4f876f05c64f5bd6af2e11b",
    "resource": {
      "resourceType": "Condition",
      "meta": {
        "profile": [ "https://www.netzwerk-universitaetsmedizin.de/fhir/StructureDefinition/chronic-neurological-mental-diseases" ]
      },
      "modifierExtension": [ {
        "url": "https://www.netzwerk-universitaetsmedizin.de/fhir/StructureDefinition/uncertainty-of-presence",
        "valueCodeableConcept": {
          "coding": [ {
            "system": "http://snomed.info/sct",
            "code": "261665006",
            "display": "Unknown (qualifier value)"
          } ],
          "text": "Presence unknown."
        }
      } ],
      "identifier": [ {
        "system": "https://mein.krankenhaus.de/fhir/NamingSystem/conditionId",
        "value": "50b410f9b64048654c7c3a410361f865a9a7b7dbcb94315b8c1033ba5ab04d2f"
      } ],
      "category": [ {
        "coding": [ {
          "system": "http://snomed.info/sct",
          "code": "394591006",
          "display": "Neurology (qualifier value)"
        }, {
          "system": "http://snomed.info/sct",
          "code": "394587001",
          "display": "Psychiatry (qualifier value)"
        } ]
      } ],
      "code": {
        "coding": [ {
          "system": "http://fhir.de/CodeSystem/dimdi/icd-10-gm",
          "version": "2021",
          "code": "G70.9"
        }, {
          "system": "http://snomed.info/sct",
          "code": "257277002"
        } ]
      },
      "subject": {
        "reference": "Patient/d257b1da81b09f2cd05310abe5f920df6a9202de1cc371159676d11b1ff5696f"
      },
      "encounter": {
        "reference": "Encounter/c29c6edd49167c69995b139fa51a4a3c149516808d5bf146ab5291ad4a8b7ae8"
      },
      "_recordedDate": {
        "extension": [ {
          "url": "http://hl7.org/fhir/StructureDefinition/data-absent-reason",
          "valueCode": "unknown"
        } ]
      }
    },
    "request": {
      "method": "POST",
      "url": "Condition",
      "ifNoneExist": "identifier=https://mein.krankenhaus.de/fhir/NamingSystem/conditionId|4c14dcbcb6563252da138049fa936eb32c85db22b4f876f05c64f5bd6af2e11b"
    }
  }, {
    "fullUrl": "Condition/e25caa75e0aa8f00b2f465f34815affe65aba0003cd1f3299aefb87c151fa2fd",
    "resource": {
      "resourceType": "Condition",
      "meta": {
        "profile": [ "https://www.netzwerk-universitaetsmedizin.de/fhir/StructureDefinition/chronic-neurological-mental-diseases" ]
      },
      "modifierExtension": [ {
        "url": "https://www.netzwerk-universitaetsmedizin.de/fhir/StructureDefinition/uncertainty-of-presence",
        "valueCodeableConcept": {
          "coding": [ {
            "system": "http://snomed.info/sct",
            "code": "261665006",
            "display": "Unknown (qualifier value)"
          } ],
          "text": "Presence unknown."
        }
      } ],
      "identifier": [ {
        "system": "https://mein.krankenhaus.de/fhir/NamingSystem/conditionId",
        "value": "431bfa3450dd4a1f731a37c8855aa3ae18c90cf1112ae83f40ef283bc6b7466e"
      } ],
      "category": [ {
        "coding": [ {
          "system": "http://snomed.info/sct",
          "code": "394591006",
          "display": "Neurology (qualifier value)"
        }, {
          "system": "http://snomed.info/sct",
          "code": "394587001",
          "display": "Psychiatry (qualifier value)"
        } ]
      } ],
      "code": {
        "coding": [ {
          "system": "http://fhir.de/CodeSystem/dimdi/icd-10-gm",
          "version": "2021",
          "code": "G40.9"
        }, {
          "system": "http://snomed.info/sct",
          "code": "84757009"
        } ]
      },
      "subject": {
        "reference": "Patient/d257b1da81b09f2cd05310abe5f920df6a9202de1cc371159676d11b1ff5696f"
      },
      "encounter": {
        "reference": "Encounter/c29c6edd49167c69995b139fa51a4a3c149516808d5bf146ab5291ad4a8b7ae8"
      },
      "_recordedDate": {
        "extension": [ {
          "url": "http://hl7.org/fhir/StructureDefinition/data-absent-reason",
          "valueCode": "unknown"
        } ]
      }
    },
    "request": {
      "method": "POST",
      "url": "Condition",
      "ifNoneExist": "identifier=https://mein.krankenhaus.de/fhir/NamingSystem/conditionId|e25caa75e0aa8f00b2f465f34815affe65aba0003cd1f3299aefb87c151fa2fd"
    }
  }, {
    "fullUrl": "Condition/5c3f42c607c7e168ed60a87953536b6e09ff590248573b6ad1f3e77b82deda40",
    "resource": {
      "resourceType": "Condition",
      "meta": {
        "profile": [ "https://www.netzwerk-universitaetsmedizin.de/fhir/StructureDefinition/chronic-neurological-mental-diseases" ]
      },
      "modifierExtension": [ {
        "url": "https://www.netzwerk-universitaetsmedizin.de/fhir/StructureDefinition/uncertainty-of-presence",
        "valueCodeableConcept": {
          "coding": [ {
            "system": "http://snomed.info/sct",
            "code": "261665006",
            "display": "Unknown (qualifier value)"
          } ],
          "text": "Presence unknown."
        }
      } ],
      "identifier": [ {
        "system": "https://mein.krankenhaus.de/fhir/NamingSystem/conditionId",
        "value": "061320e81c6dd6ff7673464de1119ca6b680991acc77853ee989a45c3ddf9f03"
      } ],
      "category": [ {
        "coding": [ {
          "system": "http://snomed.info/sct",
          "code": "394591006",
          "display": "Neurology (qualifier value)"
        }, {
          "system": "http://snomed.info/sct",
          "code": "394587001",
          "display": "Psychiatry (qualifier value)"
        } ]
      } ],
      "code": {
        "coding": [ {
          "system": "http://fhir.de/CodeSystem/dimdi/icd-10-gm",
          "version": "2021",
          "code": "G43.9"
        }, {
          "system": "http://snomed.info/sct",
          "code": "37796009"
        } ]
      },
      "subject": {
        "reference": "Patient/d257b1da81b09f2cd05310abe5f920df6a9202de1cc371159676d11b1ff5696f"
      },
      "encounter": {
        "reference": "Encounter/c29c6edd49167c69995b139fa51a4a3c149516808d5bf146ab5291ad4a8b7ae8"
      },
      "_recordedDate": {
        "extension": [ {
          "url": "http://hl7.org/fhir/StructureDefinition/data-absent-reason",
          "valueCode": "unknown"
        } ]
      }
    },
    "request": {
      "method": "POST",
      "url": "Condition",
      "ifNoneExist": "identifier=https://mein.krankenhaus.de/fhir/NamingSystem/conditionId|5c3f42c607c7e168ed60a87953536b6e09ff590248573b6ad1f3e77b82deda40"
    }
  }, {
    "fullUrl": "Condition/7cde3058ce10999c009ef99254c4364078ca9c1097a50c9731107920214d2d1a",
    "resource": {
      "resourceType": "Condition",
      "meta": {
        "profile": [ "https://www.netzwerk-universitaetsmedizin.de/fhir/StructureDefinition/chronic-neurological-mental-diseases" ]
      },
      "identifier": [ {
        "system": "https://mein.krankenhaus.de/fhir/NamingSystem/conditionId",
        "value": "288d39a1e3f8b010a71a151bbfaa2b7b661d84e072f98c7e32c2febb8e50eefd"
      } ],
      "clinicalStatus": {
        "coding": [ {
          "system": "http://terminology.hl7.org/CodeSystem/condition-clinical",
          "code": "active",
          "display": "Active"
        } ]
      },
      "verificationStatus": {
        "coding": [ {
          "system": "http://terminology.hl7.org/CodeSystem/condition-ver-status",
          "code": "confirmed",
          "display": "Confirmed"
        }, {
          "system": "http://snomed.info/sct",
          "code": "410605003",
          "display": "Confirmed present (qualifier value)"
        } ]
      },
      "category": [ {
        "coding": [ {
          "system": "http://snomed.info/sct",
          "code": "394591006",
          "display": "Neurology (qualifier value)"
        }, {
          "system": "http://snomed.info/sct",
          "code": "394587001",
          "display": "Psychiatry (qualifier value)"
        } ]
      } ],
      "code": {
        "coding": [ {
          "system": "http://fhir.de/CodeSystem/dimdi/icd-10-gm",
          "version": "2021",
          "code": "I69.4"
        }, {
          "system": "http://snomed.info/sct",
          "code": "440140008"
        } ]
      },
      "subject": {
        "reference": "Patient/d257b1da81b09f2cd05310abe5f920df6a9202de1cc371159676d11b1ff5696f"
      },
      "encounter": {
        "reference": "Encounter/c29c6edd49167c69995b139fa51a4a3c149516808d5bf146ab5291ad4a8b7ae8"
      },
      "_recordedDate": {
        "extension": [ {
          "url": "http://hl7.org/fhir/StructureDefinition/data-absent-reason",
          "valueCode": "unknown"
        } ]
      }
    },
    "request": {
      "method": "POST",
      "url": "Condition",
      "ifNoneExist": "identifier=https://mein.krankenhaus.de/fhir/NamingSystem/conditionId|7cde3058ce10999c009ef99254c4364078ca9c1097a50c9731107920214d2d1a"
    }
  }, {
    "fullUrl": "Condition/1c00de5014d19e55781418be60420d573ccd491855df9b713e484c3cc5b48064",
    "resource": {
      "resourceType": "Condition",
      "meta": {
        "profile": [ "https://www.netzwerk-universitaetsmedizin.de/fhir/StructureDefinition/chronic-neurological-mental-diseases" ]
      },
      "identifier": [ {
        "system": "https://mein.krankenhaus.de/fhir/NamingSystem/conditionId",
        "value": "a2f592e936df6d772268d32cf480043d63faf4ec0565ac162ee95dee834b0507"
      } ],
      "clinicalStatus": {
        "coding": [ {
          "system": "http://terminology.hl7.org/CodeSystem/condition-clinical",
          "code": "active",
          "display": "Active"
        } ]
      },
      "verificationStatus": {
        "coding": [ {
          "system": "http://terminology.hl7.org/CodeSystem/condition-ver-status",
          "code": "confirmed",
          "display": "Confirmed"
        }, {
          "system": "http://snomed.info/sct",
          "code": "410605003",
          "display": "Confirmed present (qualifier value)"
        } ]
      },
      "category": [ {
        "coding": [ {
          "system": "http://snomed.info/sct",
          "code": "394591006",
          "display": "Neurology (qualifier value)"
        }, {
          "system": "http://snomed.info/sct",
          "code": "394587001",
          "display": "Psychiatry (qualifier value)"
        } ]
      } ],
      "code": {
        "coding": [ {
          "system": "http://fhir.de/CodeSystem/dimdi/icd-10-gm",
          "version": "2021",
          "code": "Z86.7"
        }, {
          "system": "http://snomed.info/sct",
          "code": "429993008"
        } ]
      },
      "subject": {
        "reference": "Patient/d257b1da81b09f2cd05310abe5f920df6a9202de1cc371159676d11b1ff5696f"
      },
      "encounter": {
        "reference": "Encounter/c29c6edd49167c69995b139fa51a4a3c149516808d5bf146ab5291ad4a8b7ae8"
      },
      "_recordedDate": {
        "extension": [ {
          "url": "http://hl7.org/fhir/StructureDefinition/data-absent-reason",
          "valueCode": "unknown"
        } ]
      }
    },
    "request": {
      "method": "POST",
      "url": "Condition",
      "ifNoneExist": "identifier=https://mein.krankenhaus.de/fhir/NamingSystem/conditionId|1c00de5014d19e55781418be60420d573ccd491855df9b713e484c3cc5b48064"
    }
  }, {
    "fullUrl": "Condition/f7f4677b0744827809caf3df7d3636c0e596944aafe7513146693e71fd171d86",
    "resource": {
      "resourceType": "Condition",
      "meta": {
        "profile": [ "https://www.netzwerk-universitaetsmedizin.de/fhir/StructureDefinition/chronic-neurological-mental-diseases" ]
      },
      "identifier": [ {
        "system": "https://mein.krankenhaus.de/fhir/NamingSystem/conditionId",
        "value": "932bceb93b7192d5dfdb857efbe8f339b2c8d0ab1985205b8ae0913ce8f9c717"
      } ],
      "clinicalStatus": {
        "coding": [ {
          "system": "http://terminology.hl7.org/CodeSystem/condition-clinical",
          "code": "active",
          "display": "Active"
        } ]
      },
      "verificationStatus": {
        "coding": [ {
          "system": "http://terminology.hl7.org/CodeSystem/condition-ver-status",
          "code": "confirmed",
          "display": "Confirmed"
        }, {
          "system": "http://snomed.info/sct",
          "code": "410605003",
          "display": "Confirmed present (qualifier value)"
        } ]
      },
      "category": [ {
        "coding": [ {
          "system": "http://snomed.info/sct",
          "code": "394591006",
          "display": "Neurology (qualifier value)"
        }, {
          "system": "http://snomed.info/sct",
          "code": "394587001",
          "display": "Psychiatry (qualifier value)"
        } ]
      } ],
      "code": {
        "coding": [ {
          "system": "http://fhir.de/CodeSystem/dimdi/icd-10-gm",
          "version": "2021",
          "code": "F29"
        }, {
          "system": "http://snomed.info/sct",
          "code": "69322001"
        } ]
      },
      "subject": {
        "reference": "Patient/d257b1da81b09f2cd05310abe5f920df6a9202de1cc371159676d11b1ff5696f"
      },
      "encounter": {
        "reference": "Encounter/c29c6edd49167c69995b139fa51a4a3c149516808d5bf146ab5291ad4a8b7ae8"
      },
      "_recordedDate": {
        "extension": [ {
          "url": "http://hl7.org/fhir/StructureDefinition/data-absent-reason",
          "valueCode": "unknown"
        } ]
      }
    },
    "request": {
      "method": "POST",
      "url": "Condition",
      "ifNoneExist": "identifier=https://mein.krankenhaus.de/fhir/NamingSystem/conditionId|f7f4677b0744827809caf3df7d3636c0e596944aafe7513146693e71fd171d86"
    }
  }, {
    "fullUrl": "Condition/0935de94415c178b527ffb862a10a4dbcf6db3a1ea9769b2f6c0d0bf7f854f78",
    "resource": {
      "resourceType": "Condition",
      "meta": {
        "profile": [ "https://www.netzwerk-universitaetsmedizin.de/fhir/StructureDefinition/chronic-neurological-mental-diseases" ]
      },
      "modifierExtension": [ {
        "url": "https://www.netzwerk-universitaetsmedizin.de/fhir/StructureDefinition/uncertainty-of-presence",
        "valueCodeableConcept": {
          "coding": [ {
            "system": "http://snomed.info/sct",
            "code": "261665006",
            "display": "Unknown (qualifier value)"
          } ],
          "text": "Presence unknown."
        }
      } ],
      "identifier": [ {
        "system": "https://mein.krankenhaus.de/fhir/NamingSystem/conditionId",
        "value": "c13886246799335a9ebad64fa33d99b68cbecb01794e1424111e00dfbee57c8a"
      } ],
      "category": [ {
        "coding": [ {
          "system": "http://snomed.info/sct",
          "code": "394591006",
          "display": "Neurology (qualifier value)"
        }, {
          "system": "http://snomed.info/sct",
          "code": "394587001",
          "display": "Psychiatry (qualifier value)"
        } ]
      } ],
      "code": {
        "coding": [ {
          "system": "http://fhir.de/CodeSystem/dimdi/icd-10-gm",
          "version": "2021",
          "code": "F32.9"
        }, {
          "system": "http://snomed.info/sct",
          "code": "35489007"
        } ]
      },
      "subject": {
        "reference": "Patient/d257b1da81b09f2cd05310abe5f920df6a9202de1cc371159676d11b1ff5696f"
      },
      "encounter": {
        "reference": "Encounter/c29c6edd49167c69995b139fa51a4a3c149516808d5bf146ab5291ad4a8b7ae8"
      },
      "_recordedDate": {
        "extension": [ {
          "url": "http://hl7.org/fhir/StructureDefinition/data-absent-reason",
          "valueCode": "unknown"
        } ]
      }
    },
    "request": {
      "method": "POST",
      "url": "Condition",
      "ifNoneExist": "identifier=https://mein.krankenhaus.de/fhir/NamingSystem/conditionId|0935de94415c178b527ffb862a10a4dbcf6db3a1ea9769b2f6c0d0bf7f854f78"
    }
  }, {
    "fullUrl": "Condition/2f49618b7de0413d5a12c7875b30adc9c3c79fff6ba2f2e6c249f68883aa0ed3",
    "resource": {
      "resourceType": "Condition",
      "meta": {
        "profile": [ "https://www.netzwerk-universitaetsmedizin.de/fhir/StructureDefinition/chronic-neurological-mental-diseases" ]
      },
      "identifier": [ {
        "system": "https://mein.krankenhaus.de/fhir/NamingSystem/conditionId",
        "value": "518364e6e5cbee2abbdc7c5ea36fa1fe6a2f932082977fedcb29f8d42ad0e4e1"
      } ],
      "verificationStatus": {
        "coding": [ {
          "system": "http://terminology.hl7.org/CodeSystem/condition-ver-status",
          "code": "refuted",
          "display": "Refuted"
        }, {
          "system": "http://snomed.info/sct",
          "code": "410594000",
          "display": "Definitely NOT present (qualifier value)"
        } ]
      },
      "category": [ {
        "coding": [ {
          "system": "http://snomed.info/sct",
          "code": "394591006",
          "display": "Neurology (qualifier value)"
        }, {
          "system": "http://snomed.info/sct",
          "code": "394587001",
          "display": "Psychiatry (qualifier value)"
        } ]
      } ],
      "code": {
        "coding": [ {
          "system": "http://fhir.de/CodeSystem/dimdi/icd-10-gm",
          "version": "2021",
          "code": "F41.9"
        }, {
          "system": "http://snomed.info/sct",
          "code": "197480006"
        } ]
      },
      "subject": {
        "reference": "Patient/d257b1da81b09f2cd05310abe5f920df6a9202de1cc371159676d11b1ff5696f"
      },
      "encounter": {
        "reference": "Encounter/c29c6edd49167c69995b139fa51a4a3c149516808d5bf146ab5291ad4a8b7ae8"
      },
      "_recordedDate": {
        "extension": [ {
          "url": "http://hl7.org/fhir/StructureDefinition/data-absent-reason",
          "valueCode": "unknown"
        } ]
      }
    },
    "request": {
      "method": "POST",
      "url": "Condition",
      "ifNoneExist": "identifier=https://mein.krankenhaus.de/fhir/NamingSystem/conditionId|2f49618b7de0413d5a12c7875b30adc9c3c79fff6ba2f2e6c249f68883aa0ed3"
    }
  }, {
    "fullUrl": "Condition/6eecc8dfda5bda414e4c7395dbe4d2631622084db0fe75c9a59ef2c80762c8e6",
    "resource": {
      "resourceType": "Condition",
      "meta": {
        "profile": [ "https://www.netzwerk-universitaetsmedizin.de/fhir/StructureDefinition/chronic-kidney-diseases" ]
      },
      "identifier": [ {
        "system": "https://mein.krankenhaus.de/fhir/NamingSystem/conditionId",
        "value": "7e4d6439e2da861d09144cabe61d3e2c8ea936c9b506f70e5112f1401ae5521a"
      } ],
      "verificationStatus": {
        "coding": [ {
          "system": "http://terminology.hl7.org/CodeSystem/condition-ver-status",
          "code": "refuted",
          "display": "Refuted"
        }, {
          "system": "http://snomed.info/sct",
          "code": "410594000",
          "display": "Definitely NOT present (qualifier value)"
        } ]
      },
      "category": [ {
        "coding": [ {
          "system": "http://snomed.info/sct",
          "code": "394589003",
          "display": "Nephrology (qualifier value)"
        } ]
      } ],
      "code": {
        "coding": [ {
          "system": "http://fhir.de/CodeSystem/dimdi/icd-10-gm",
          "version": "2021",
          "code": "N18.9"
        }, {
          "system": "http://snomed.info/sct",
          "code": "709044004"
        } ]
      },
      "subject": {
        "reference": "Patient/d257b1da81b09f2cd05310abe5f920df6a9202de1cc371159676d11b1ff5696f"
      },
      "encounter": {
        "reference": "Encounter/c29c6edd49167c69995b139fa51a4a3c149516808d5bf146ab5291ad4a8b7ae8"
      },
      "_recordedDate": {
        "extension": [ {
          "url": "http://hl7.org/fhir/StructureDefinition/data-absent-reason",
          "valueCode": "unknown"
        } ]
      }
    },
    "request": {
      "method": "POST",
      "url": "Condition",
      "ifNoneExist": "identifier=https://mein.krankenhaus.de/fhir/NamingSystem/conditionId|6eecc8dfda5bda414e4c7395dbe4d2631622084db0fe75c9a59ef2c80762c8e6"
    }
  }, {
    "fullUrl": "Condition/6f8185998ee131977a243071e41e063e000628bcccd4896691d83aa300061427",
    "resource": {
      "resourceType": "Condition",
      "meta": {
        "profile": [ "https://www.netzwerk-universitaetsmedizin.de/fhir/StructureDefinition/gastrointestinal-ulcers" ]
      },
      "modifierExtension": [ {
        "url": "https://www.netzwerk-universitaetsmedizin.de/fhir/StructureDefinition/uncertainty-of-presence",
        "valueCodeableConcept": {
          "coding": [ {
            "system": "http://snomed.info/sct",
            "code": "261665006",
            "display": "Unknown (qualifier value)"
          } ],
          "text": "Presence unknown."
        }
      } ],
      "identifier": [ {
        "system": "https://mein.krankenhaus.de/fhir/NamingSystem/conditionId",
        "value": "8ea9cd7b6a3751e3b09fb4df4468797b14319056123ad5bb50a7cec2d5ec4d4a"
      } ],
      "category": [ {
        "coding": [ {
          "system": "http://snomed.info/sct",
          "code": "394584008",
          "display": "Gastroenterology (qualifier value))"
        } ]
      } ],
      "code": {
        "coding": [ {
          "system": "http://fhir.de/CodeSystem/dimdi/icd-10-gm",
          "version": "2021",
          "code": "K28"
        }, {
          "system": "http://snomed.info/sct",
          "code": "40845000"
        } ]
      },
      "subject": {
        "reference": "Patient/d257b1da81b09f2cd05310abe5f920df6a9202de1cc371159676d11b1ff5696f"
      },
      "encounter": {
        "reference": "Encounter/c29c6edd49167c69995b139fa51a4a3c149516808d5bf146ab5291ad4a8b7ae8"
      },
      "_recordedDate": {
        "extension": [ {
          "url": "http://hl7.org/fhir/StructureDefinition/data-absent-reason",
          "valueCode": "unknown"
        } ]
      }
    },
    "request": {
      "method": "POST",
      "url": "Condition",
      "ifNoneExist": "identifier=https://mein.krankenhaus.de/fhir/NamingSystem/conditionId|6f8185998ee131977a243071e41e063e000628bcccd4896691d83aa300061427"
    }
  }, {
    "fullUrl": "Observation/5713c98c1baf7dbbe734269f10affaeb1b23a9d07cf560f657f03fa760ff2a7e",
    "resource": {
      "resourceType": "Observation",
      "meta": {
        "profile": [ "https://www.netzwerk-universitaetsmedizin.de/fhir/StructureDefinition/smoking-status" ]
      },
      "identifier": [ {
        "system": "https://mein.krankenhaus.de/fhir/NamingSystem/observationId",
        "value": "dc8f0ba67f0746b64dbc5ba3562c09b354e81f55f9c3a5577aa120a750acc545"
      } ],
      "status": "final",
      "category": [ {
        "coding": [ {
          "system": "http://terminology.hl7.org/CodeSystem/observation-category",
          "code": "social-history",
          "display": "Social History"
        } ]
      } ],
      "code": {
        "coding": [ {
          "system": "http://loinc.org",
          "code": "72166-2"
        } ]
      },
      "subject": {
        "reference": "Patient/d257b1da81b09f2cd05310abe5f920df6a9202de1cc371159676d11b1ff5696f"
      },
      "encounter": {
        "reference": "Encounter/c29c6edd49167c69995b139fa51a4a3c149516808d5bf146ab5291ad4a8b7ae8"
      },
      "_effectiveDateTime": {
        "extension": [ {
          "url": "http://hl7.org/fhir/StructureDefinition/data-absent-reason",
          "valueCode": "unknown"
        } ]
      },
      "valueCodeableConcept": {
        "coding": [ {
          "system": "http://loinc.org",
          "code": "LA18976-3"
        } ]
      }
    },
    "request": {
      "method": "POST",
      "url": "Observation",
      "ifNoneExist": "identifier=https://mein.krankenhaus.de/fhir/NamingSystem/observationId|5713c98c1baf7dbbe734269f10affaeb1b23a9d07cf560f657f03fa760ff2a7e"
    }
  }, {
    "fullUrl": "Procedure/175b363b4723cead64e11877aed6f220fe825dd85de0e2b90f58fcb2c5f93ddb",
    "resource": {
      "resourceType": "Procedure",
      "meta": {
        "profile": [ "https://www.netzwerk-universitaetsmedizin.de/fhir/StructureDefinition/respiratory-therapies" ]
      },
      "identifier": [ {
        "system": "https://mein.krankenhaus.de/fhir/NamingSystem/procedureId",
        "value": "6ee1f330c6a022d88127f296a734dbc8f646e591143f08b8bac4e4c50bb75e39"
      } ],
      "status": "not-done",
      "category": {
        "coding": [ {
          "system": "http://snomed.info/sct",
          "code": "277132007",
          "display": "Therapeutic procedure (procedure)"
        } ]
      },
      "code": {
        "coding": [ {
          "system": "http://snomed.info/sct",
          "code": "53950000"
        } ]
      },
      "subject": {
        "reference": "Patient/d257b1da81b09f2cd05310abe5f920df6a9202de1cc371159676d11b1ff5696f"
      },
      "encounter": {
        "reference": "Encounter/c29c6edd49167c69995b139fa51a4a3c149516808d5bf146ab5291ad4a8b7ae8"
      },
      "_performedDateTime": {
        "extension": [ {
          "url": "http://hl7.org/fhir/StructureDefinition/data-absent-reason",
          "valueCode": "unknown"
        } ]
      }
    },
    "request": {
      "method": "POST",
      "url": "Procedure",
      "ifNoneExist": "identifier=https://mein.krankenhaus.de/fhir/NamingSystem/procedureId|175b363b4723cead64e11877aed6f220fe825dd85de0e2b90f58fcb2c5f93ddb"
    }
  }, {
    "fullUrl": "Immunization/e5d38a48b434a35cc0056fbb281f9e8ee7faf79a01f3c72bb0af90dc9467f5d8",
    "resource": {
      "resourceType": "Immunization",
      "meta": {
        "profile": [ "https://www.netzwerk-universitaetsmedizin.de/fhir/StructureDefinition/immunization" ]
      },
      "identifier": [ {
        "system": "https://mein.krankenhaus.de/fhir/NamingSystem/immunizationId",
        "value": "a93641b18c416ac3df0cdb74d507e701d37acc03375ff837556a111826dabd0c"
      } ],
      "status": "completed",
      "vaccineCode": {
        "coding": [ {
          "system": "http://snomed.info/sct",
          "code": "836377006"
        } ]
      },
      "patient": {
        "reference": "Patient/d257b1da81b09f2cd05310abe5f920df6a9202de1cc371159676d11b1ff5696f"
      },
      "encounter": {
        "reference": "Encounter/c29c6edd49167c69995b139fa51a4a3c149516808d5bf146ab5291ad4a8b7ae8"
      },
      "occurrenceDateTime": "2020-02-22",
      "protocolApplied": [ {
        "targetDisease": [ {
          "coding": [ {
            "system": "http://snomed.info/sct",
            "code": "6142004"
          } ]
        } ],
        "_doseNumberString": {
          "extension": [ {
            "url": "http://hl7.org/fhir/StructureDefinition/data-absent-reason",
            "valueCode": "unknown"
          } ]
        }
      } ]
    },
    "request": {
      "method": "POST",
      "url": "Immunization",
      "ifNoneExist": "identifier=https://mein.krankenhaus.de/fhir/NamingSystem/immunizationId|e5d38a48b434a35cc0056fbb281f9e8ee7faf79a01f3c72bb0af90dc9467f5d8"
    }
  }, {
    "fullUrl": "Immunization/bfe46d8f64426844eea6db3eb6b4eacd7dc66dd1685196f3309e055bde17687b",
    "resource": {
      "resourceType": "Immunization",
      "meta": {
        "profile": [ "https://www.netzwerk-universitaetsmedizin.de/fhir/StructureDefinition/immunization" ]
      },
      "identifier": [ {
        "system": "https://mein.krankenhaus.de/fhir/NamingSystem/immunizationId",
        "value": "108f7d7d31e7167ab563d5ec3c662fa28334814386f813342d2843cefafcba40"
      } ],
      "status": "completed",
      "vaccineCode": {
        "coding": [ {
          "system": "http://snomed.info/sct",
          "code": "836402002"
        } ]
      },
      "patient": {
        "reference": "Patient/d257b1da81b09f2cd05310abe5f920df6a9202de1cc371159676d11b1ff5696f"
      },
      "encounter": {
        "reference": "Encounter/c29c6edd49167c69995b139fa51a4a3c149516808d5bf146ab5291ad4a8b7ae8"
      },
      "occurrenceDateTime": "2020-10-05",
      "protocolApplied": [ {
        "targetDisease": [ {
          "coding": [ {
            "system": "http://snomed.info/sct",
            "code": "56717001"
          } ]
        } ],
        "_doseNumberString": {
          "extension": [ {
            "url": "http://hl7.org/fhir/StructureDefinition/data-absent-reason",
            "valueCode": "unknown"
          } ]
        }
      } ]
    },
    "request": {
      "method": "POST",
      "url": "Immunization",
      "ifNoneExist": "identifier=https://mein.krankenhaus.de/fhir/NamingSystem/immunizationId|bfe46d8f64426844eea6db3eb6b4eacd7dc66dd1685196f3309e055bde17687b"
    }
  }, {
    "fullUrl": "Immunization/1b44ddb785d866ff2cf09db413df56ac4c3e6a03453b8b9692725fd9f57a3610",
    "resource": {
      "resourceType": "Immunization",
      "meta": {
        "profile": [ "https://www.netzwerk-universitaetsmedizin.de/fhir/StructureDefinition/immunization" ]
      },
      "identifier": [ {
        "system": "https://mein.krankenhaus.de/fhir/NamingSystem/immunizationId",
        "value": "562af3d8b06215ad0dd90356aa99a16e222742262b3b2c19a3cdb5add4a4227e"
      } ],
      "status": "completed",
      "vaccineCode": {
        "coding": [ {
          "system": "http://snomed.info/sct",
          "code": "1119349007"
        } ]
      },
      "patient": {
        "reference": "Patient/d257b1da81b09f2cd05310abe5f920df6a9202de1cc371159676d11b1ff5696f"
      },
      "encounter": {
        "reference": "Encounter/c29c6edd49167c69995b139fa51a4a3c149516808d5bf146ab5291ad4a8b7ae8"
      },
      "occurrenceDateTime": "2020-01-03",
      "protocolApplied": [ {
        "targetDisease": [ {
          "coding": [ {
            "system": "http://snomed.info/sct",
            "code": "840539006"
          } ]
        } ],
        "_doseNumberString": {
          "extension": [ {
            "url": "http://hl7.org/fhir/StructureDefinition/data-absent-reason",
            "valueCode": "unknown"
          } ]
        }
      } ]
    },
    "request": {
      "method": "POST",
      "url": "Immunization",
      "ifNoneExist": "identifier=https://mein.krankenhaus.de/fhir/NamingSystem/immunizationId|1b44ddb785d866ff2cf09db413df56ac4c3e6a03453b8b9692725fd9f57a3610"
    }
  }, {
    "fullUrl": "Consent/17402b53f739a2b63d5bfa93d0fb1412347d1fa8b7463e830ae1666cfcb6af11",
    "resource": {
      "resourceType": "Consent",
      "meta": {
        "profile": [ "https://www.netzwerk-universitaetsmedizin.de/fhir/StructureDefinition/do-not-resuscitate-order" ]
      },
      "identifier": [ {
        "system": "https://mein.krankenhaus.de/fhir/NamingSystem/consentId",
        "value": "51ebb37bdf4039301d7ffb5960128020d354dc7fdc17677ba4018f4432ed9726"
      } ],
      "status": "active",
      "scope": {
        "coding": [ {
          "system": "http://terminology.hl7.org/CodeSystem/consentscope",
          "code": "adr",
          "display": "Advanced Care Directive"
        } ]
      },
      "category": [ {
        "coding": [ {
          "system": "http://terminology.hl7.org/CodeSystem/consentcategorycodes",
          "code": "dnr",
          "display": "Do Not Resuscitate"
        } ]
      } ],
      "patient": {
        "reference": "Patient/d257b1da81b09f2cd05310abe5f920df6a9202de1cc371159676d11b1ff5696f"
      },
      "policy": [ {
        "uri": "https://www.aerzteblatt.de/archiv/65440/DNR-Anordnungen-Das-fehlende-Bindeglied"
      } ],
      "provision": {
        "code": [ {
          "coding": [ {
            "system": "http://snomed.info/sct",
            "code": "304253006"
          } ]
        } ]
      }
    },
    "request": {
      "method": "POST",
      "url": "Consent",
      "ifNoneExist": "identifier=https://mein.krankenhaus.de/fhir/NamingSystem/consentId|17402b53f739a2b63d5bfa93d0fb1412347d1fa8b7463e830ae1666cfcb6af11"
    }
  }, {
    "fullUrl": "Observation/e3d446d0174e0c1a47af171d9e4908b6e93a6679bf7184f5c00314116664e1d6",
    "resource": {
      "resourceType": "Observation",
      "meta": {
        "profile": [ "https://www.netzwerk-universitaetsmedizin.de/fhir/StructureDefinition/sex-assigned-at-birth" ]
      },
      "identifier": [ {
        "system": "https://mein.krankenhaus.de/fhir/NamingSystem/observationId",
        "value": "b42695b13a7b848626c6e6dc52f1f77879532bb214f6c2c8ebd3dc8d52bde9a0"
      } ],
      "status": "final",
      "category": [ {
        "coding": [ {
          "system": "http://terminology.hl7.org/CodeSystem/observation-category",
          "code": "social-history",
          "display": "Social History"
        } ]
      } ],
      "code": {
        "coding": [ {
          "system": "http://loinc.org",
          "code": "76689-9"
        } ]
      },
      "subject": {
        "reference": "Patient/d257b1da81b09f2cd05310abe5f920df6a9202de1cc371159676d11b1ff5696f"
      },
      "encounter": {
        "reference": "Encounter/c29c6edd49167c69995b139fa51a4a3c149516808d5bf146ab5291ad4a8b7ae8"
      },
      "_effectiveDateTime": {
        "extension": [ {
          "url": "http://hl7.org/fhir/StructureDefinition/data-absent-reason",
          "valueCode": "unknown"
        } ]
      },
      "valueCodeableConcept": {
        "coding": [ {
          "system": "http://hl7.org/fhir/administrative-gender",
          "code": "male"
        } ]
      }
    },
    "request": {
      "method": "POST",
      "url": "Observation",
      "ifNoneExist": "identifier=https://mein.krankenhaus.de/fhir/NamingSystem/observationId|e3d446d0174e0c1a47af171d9e4908b6e93a6679bf7184f5c00314116664e1d6"
    }
  }, {
    "fullUrl": "Observation/d3585de77709276faea5bddd76dff68350064946f88d77dff8a93644ab10b669",
    "resource": {
      "resourceType": "Observation",
      "meta": {
        "profile": [ "https://www.netzwerk-universitaetsmedizin.de/fhir/StructureDefinition/frailty-score" ]
      },
      "identifier": [ {
        "type": {
          "coding": [ {
            "system": "http://terminology.hl7.org/CodeSystem/v2-0203",
            "code": "OBI",
            "display": "Observation Instance Identifier"
          } ]
        },
        "system": "https://mein.krankenhaus.de/fhir/NamingSystem/observationId",
        "value": "b81e80c430484b4f186b9f8a4b9748197a6fff51021b459b9553dbcf33dc2f24",
        "assigner": {
          "reference": "Organization/3a4f3433bce81181bad2d8e0b8fafccf7dc800bc06f29be73dcb38b750a48f9a"
        }
      } ],
      "status": "final",
      "category": [ {
        "coding": [ {
          "system": "http://terminology.hl7.org/CodeSystem/observation-category",
          "code": "survey",
          "display": "Survey"
        } ]
      } ],
      "code": {
        "coding": [ {
          "system": "http://snomed.info/sct",
          "code": "763264000"
        } ],
        "text": "Frailty Scale Score"
      },
      "subject": {
        "reference": "Patient/d257b1da81b09f2cd05310abe5f920df6a9202de1cc371159676d11b1ff5696f"
      },
      "encounter": {
        "reference": "Encounter/c29c6edd49167c69995b139fa51a4a3c149516808d5bf146ab5291ad4a8b7ae8"
      },
      "_effectiveDateTime": {
        "extension": [ {
          "url": "http://hl7.org/fhir/StructureDefinition/data-absent-reason",
          "valueCode": "unknown"
        } ]
      },
      "valueCodeableConcept": {
        "coding": [ {
          "system": "https://www.netzwerk-universitaetsmedizin.de/fhir/CodeSystem/frailty-score",
          "code": "4"
        } ]
      },
      "method": {
        "coding": [ {
          "system": "http://snomed.info/sct",
          "code": "445414007",
          "display": "Canadian Study of Health and Aging clinical frailty scale"
        } ]
      }
    },
    "request": {
      "method": "POST",
      "url": "Observation",
      "ifNoneExist": "identifier=https://mein.krankenhaus.de/fhir/NamingSystem/observationId|d3585de77709276faea5bddd76dff68350064946f88d77dff8a93644ab10b669"
    }
  }, {
    "fullUrl": "Observation/1c6360918b6ce589b74ee5960c337ad5df60e2ef7ea542abaeed0ff49cfa43ba",
    "resource": {
      "resourceType": "Observation",
      "meta": {
        "profile": [ "https://www.netzwerk-universitaetsmedizin.de/fhir/StructureDefinition/body-weight" ]
      },
      "identifier": [ {
        "type": {
          "coding": [ {
            "system": "http://terminology.hl7.org/CodeSystem/v2-0203",
            "code": "OBI",
            "display": "Observation Instance Identifier"
          } ]
        },
        "system": "https://mein.krankenhaus.de/fhir/NamingSystem/observationId",
        "value": "0922a342f9e8ee9732ee7ada04974b525c480bf09fc6b5d68800bb60212e0911",
        "assigner": {
          "reference": "Organization/3a4f3433bce81181bad2d8e0b8fafccf7dc800bc06f29be73dcb38b750a48f9a"
        }
      } ],
      "status": "final",
      "category": [ {
        "coding": [ {
          "system": "http://terminology.hl7.org/CodeSystem/observation-category",
          "code": "vital-signs",
          "display": "Vital Signs"
        } ]
      } ],
      "code": {
        "coding": [ {
          "system": "http://loinc.org",
          "code": "29463-7"
        }, {
          "system": "http://snomed.info/sct",
          "code": "27113001"
        } ],
        "text": "Body Weight"
      },
      "subject": {
        "reference": "Patient/d257b1da81b09f2cd05310abe5f920df6a9202de1cc371159676d11b1ff5696f"
      },
      "encounter": {
        "reference": "Encounter/c29c6edd49167c69995b139fa51a4a3c149516808d5bf146ab5291ad4a8b7ae8"
      },
      "_effectiveDateTime": {
        "extension": [ {
          "url": "http://hl7.org/fhir/StructureDefinition/data-absent-reason",
          "valueCode": "unknown"
        } ]
      },
      "valueQuantity": {
        "value": 137,
        "unit": "kilogram",
        "system": "http://unitsofmeasure.org",
        "code": "kg"
      }
    },
    "request": {
      "method": "POST",
      "url": "Observation",
      "ifNoneExist": "identifier=https://mein.krankenhaus.de/fhir/NamingSystem/observationId|1c6360918b6ce589b74ee5960c337ad5df60e2ef7ea542abaeed0ff49cfa43ba"
    }
  }, {
    "fullUrl": "Observation/d612c72b83a072522361ad8cad1a34980f76332f0472f5c63630ae93abec5f04",
    "resource": {
      "resourceType": "Observation",
      "meta": {
        "profile": [ "https://www.netzwerk-universitaetsmedizin.de/fhir/StructureDefinition/body-height" ]
      },
      "identifier": [ {
        "type": {
          "coding": [ {
            "system": "http://terminology.hl7.org/CodeSystem/v2-0203",
            "code": "OBI",
            "display": "Observation Instance Identifier"
          } ]
        },
        "system": "https://mein.krankenhaus.de/fhir/NamingSystem/observationId",
        "value": "c1a45074241f88d7ca7f3342a4bb6651db76a3cf816ab4f0f324c5c17968eb54",
        "assigner": {
          "reference": "Organization/3a4f3433bce81181bad2d8e0b8fafccf7dc800bc06f29be73dcb38b750a48f9a"
        }
      } ],
      "status": "final",
      "category": [ {
        "coding": [ {
          "system": "http://terminology.hl7.org/CodeSystem/observation-category",
          "code": "vital-signs",
          "display": "Vital Signs"
        } ]
      } ],
      "code": {
        "coding": [ {
          "system": "http://loinc.org",
          "code": "8302-2"
        }, {
          "system": "http://snomed.info/sct",
          "code": "50373000"
        } ],
        "text": "Body height"
      },
      "subject": {
        "reference": "Patient/d257b1da81b09f2cd05310abe5f920df6a9202de1cc371159676d11b1ff5696f"
      },
      "encounter": {
        "reference": "Encounter/c29c6edd49167c69995b139fa51a4a3c149516808d5bf146ab5291ad4a8b7ae8"
      },
      "_effectiveDateTime": {
        "extension": [ {
          "url": "http://hl7.org/fhir/StructureDefinition/data-absent-reason",
          "valueCode": "unknown"
        } ]
      },
      "valueQuantity": {
        "value": 145,
        "unit": "centimeter",
        "system": "http://unitsofmeasure.org",
        "code": "cm"
      }
    },
    "request": {
      "method": "POST",
      "url": "Observation",
      "ifNoneExist": "identifier=https://mein.krankenhaus.de/fhir/NamingSystem/observationId|d612c72b83a072522361ad8cad1a34980f76332f0472f5c63630ae93abec5f04"
    }
  }, {
    "fullUrl": "Observation/5f1c913d79446c0b5ae3ee6a912f5631eb80a4876a9c058b8a4331735fa8d116",
    "resource": {
      "resourceType": "Observation",
      "meta": {
        "profile": [ "https://www.netzwerk-universitaetsmedizin.de/fhir/StructureDefinition/known-exposure" ]
      },
      "identifier": [ {
        "type": {
          "coding": [ {
            "system": "http://terminology.hl7.org/CodeSystem/v2-0203",
            "code": "OBI",
            "display": "Observation Instance Identifier"
          } ]
        },
        "system": "https://mein.krankenhaus.de/fhir/NamingSystem/observationId",
        "value": "d0ccc0cd7c81b5fd0ca420f06243fad634ae50642bb69f434380bfab7c0293cb",
        "assigner": {
          "reference": "Organization/3a4f3433bce81181bad2d8e0b8fafccf7dc800bc06f29be73dcb38b750a48f9a"
        }
      } ],
      "status": "final",
      "category": [ {
        "coding": [ {
          "system": "http://terminology.hl7.org/CodeSystem/observation-category",
          "code": "social-history",
          "display": "Social History"
        } ]
      } ],
      "code": {
        "coding": [ {
          "system": "http://loinc.org",
          "code": "88636-6"
        } ],
        "text": "Known exposure"
      },
      "subject": {
        "reference": "Patient/d257b1da81b09f2cd05310abe5f920df6a9202de1cc371159676d11b1ff5696f"
      },
      "encounter": {
        "reference": "Encounter/c29c6edd49167c69995b139fa51a4a3c149516808d5bf146ab5291ad4a8b7ae8"
      },
      "_effectiveDateTime": {
        "extension": [ {
          "url": "http://hl7.org/fhir/StructureDefinition/data-absent-reason",
          "valueCode": "unknown"
        } ]
      },
      "valueCodeableConcept": {
        "coding": [ {
          "system": "http://snomed.info/sct",
          "code": "840546002"
        } ]
      }
    },
    "request": {
      "method": "POST",
      "url": "Observation",
      "ifNoneExist": "identifier=https://mein.krankenhaus.de/fhir/NamingSystem/observationId|5f1c913d79446c0b5ae3ee6a912f5631eb80a4876a9c058b8a4331735fa8d116"
    }
  }, {
    "fullUrl": "Procedure/0529a1f50e3932a0ec950a17af93469d6d9033aaffd29ac0caea9c27c2852c29",
    "resource": {
      "resourceType": "Procedure",
      "meta": {
        "profile": [ "https://www.netzwerk-universitaetsmedizin.de/fhir/StructureDefinition/dialysis" ]
      },
      "identifier": [ {
        "system": "https://mein.krankenhaus.de/fhir/NamingSystem/procedureId",
        "value": "71e63751edb10ae1d999b62407d25869215f45154428c49d2b61336c8548b470"
      } ],
      "status": "in-progress",
      "category": {
        "coding": [ {
          "system": "http://snomed.info/sct",
          "code": "277132007",
          "display": "Therapeutic procedure (procedure)"
        } ]
      },
      "code": {
        "coding": [ {
          "system": "http://snomed.info/sct",
          "code": "108241001"
        } ],
        "text": "Dialysis"
      },
      "subject": {
        "reference": "Patient/d257b1da81b09f2cd05310abe5f920df6a9202de1cc371159676d11b1ff5696f"
      },
      "encounter": {
        "reference": "Encounter/c29c6edd49167c69995b139fa51a4a3c149516808d5bf146ab5291ad4a8b7ae8"
      },
      "_performedDateTime": {
        "extension": [ {
          "url": "http://hl7.org/fhir/StructureDefinition/data-absent-reason",
          "valueCode": "unknown"
        } ]
      }
    },
    "request": {
      "method": "POST",
      "url": "Procedure",
      "ifNoneExist": "identifier=https://mein.krankenhaus.de/fhir/NamingSystem/procedureId|0529a1f50e3932a0ec950a17af93469d6d9033aaffd29ac0caea9c27c2852c29"
    }
  }, {
    "fullUrl": "Procedure/60fc8d4191d0bc686d5c3b1b412a6a428d71b5074c73a0d218d059975f30ad69",
    "resource": {
      "resourceType": "Procedure",
      "meta": {
        "profile": [ "https://www.netzwerk-universitaetsmedizin.de/fhir/StructureDefinition/apheresis" ]
      },
      "identifier": [ {
        "system": "https://mein.krankenhaus.de/fhir/NamingSystem/procedureId",
        "value": "baa73b983b0eb5721307739d03197bcb3a4a31ad4a0f4dd7dbb1ab35958a863a"
      } ],
      "status": "unknown",
      "category": {
        "coding": [ {
          "system": "http://snomed.info/sct",
          "code": "277132007",
          "display": "Therapeutic procedure (procedure)"
        } ]
      },
      "code": {
        "coding": [ {
          "system": "http://snomed.info/sct",
          "code": "127788007"
        } ],
        "text": "Apheresis"
      },
      "subject": {
        "reference": "Patient/d257b1da81b09f2cd05310abe5f920df6a9202de1cc371159676d11b1ff5696f"
      },
      "encounter": {
        "reference": "Encounter/c29c6edd49167c69995b139fa51a4a3c149516808d5bf146ab5291ad4a8b7ae8"
      },
      "_performedDateTime": {
        "extension": [ {
          "url": "http://hl7.org/fhir/StructureDefinition/data-absent-reason",
          "valueCode": "unknown"
        } ]
      }
    },
    "request": {
      "method": "POST",
      "url": "Procedure",
      "ifNoneExist": "identifier=https://mein.krankenhaus.de/fhir/NamingSystem/procedureId|60fc8d4191d0bc686d5c3b1b412a6a428d71b5074c73a0d218d059975f30ad69"
    }
  }, {
    "fullUrl": "Procedure/68d592dc11c43ab8305979bbda191ff39e8003f9fbe34b2ddd96618a1b99c0c4",
    "resource": {
      "resourceType": "Procedure",
      "meta": {
        "profile": [ "https://www.netzwerk-universitaetsmedizin.de/fhir/StructureDefinition/prone-position" ]
      },
      "identifier": [ {
        "system": "https://mein.krankenhaus.de/fhir/NamingSystem/procedureId",
        "value": "80d2dd0bea82211073e0246702b5b15f613539fa781d253bfcbe9f65e485706c"
      } ],
      "status": "not-done",
      "category": {
        "coding": [ {
          "system": "http://snomed.info/sct",
          "code": "225287004",
          "display": "Procedures relating to positioning and support (procedure)"
        } ]
      },
      "code": {
        "coding": [ {
          "system": "http://snomed.info/sct",
          "code": "431182000"
        } ],
        "text": "Prone position"
      },
      "subject": {
        "reference": "Patient/d257b1da81b09f2cd05310abe5f920df6a9202de1cc371159676d11b1ff5696f"
      },
      "encounter": {
        "reference": "Encounter/c29c6edd49167c69995b139fa51a4a3c149516808d5bf146ab5291ad4a8b7ae8"
      },
      "_performedDateTime": {
        "extension": [ {
          "url": "http://hl7.org/fhir/StructureDefinition/data-absent-reason",
          "valueCode": "not-performed"
        } ]
      }
    },
    "request": {
      "method": "POST",
      "url": "Procedure",
      "ifNoneExist": "identifier=https://mein.krankenhaus.de/fhir/NamingSystem/procedureId|68d592dc11c43ab8305979bbda191ff39e8003f9fbe34b2ddd96618a1b99c0c4"
    }
  }, {
    "fullUrl": "Procedure/d5f69036e4557abc2196b7401886d3a24a2ff9285e996feac7878c999c735cc8",
    "resource": {
      "resourceType": "Procedure",
      "meta": {
        "profile": [ "https://www.netzwerk-universitaetsmedizin.de/fhir/StructureDefinition/respiratory-therapies" ]
      },
      "identifier": [ {
        "system": "https://mein.krankenhaus.de/fhir/NamingSystem/procedureId",
        "value": "2b6038726a9576e3004730e29ba937681177b185610d0bd9a6b9f90f64b7fe2d"
      } ],
      "status": "in-progress",
      "category": {
        "coding": [ {
          "system": "http://snomed.info/sct",
          "code": "277132007",
          "display": "Therapeutic procedure (procedure)"
        } ]
      },
      "code": {
        "coding": [ {
          "system": "http://snomed.info/sct",
          "code": "371907003:425391005=426854004"
        } ]
      },
      "subject": {
        "reference": "Patient/d257b1da81b09f2cd05310abe5f920df6a9202de1cc371159676d11b1ff5696f"
      },
      "encounter": {
        "reference": "Encounter/c29c6edd49167c69995b139fa51a4a3c149516808d5bf146ab5291ad4a8b7ae8"
      },
      "_performedDateTime": {
        "extension": [ {
          "url": "http://hl7.org/fhir/StructureDefinition/data-absent-reason",
          "valueCode": "unknown"
        } ]
      },
      "usedCode": [ {
        "coding": [ {
          "system": "http://snomed.info/sct",
          "code": "426854004"
        } ]
      } ]
    },
    "request": {
      "method": "POST",
      "url": "Procedure",
      "ifNoneExist": "identifier=https://mein.krankenhaus.de/fhir/NamingSystem/procedureId|d5f69036e4557abc2196b7401886d3a24a2ff9285e996feac7878c999c735cc8"
    }
  }, {
    "fullUrl": "Observation/f57d5aa438376b30fe62ccafe7ebf8ed90ac4954ad750a18eb5743b63787e1eb",
    "resource": {
      "resourceType": "Observation",
      "meta": {
        "profile": [ "https://www.netzwerk-universitaetsmedizin.de/fhir/StructureDefinition/patient-in-icu" ]
      },
      "identifier": [ {
        "system": "https://mein.krankenhaus.de/fhir/NamingSystem/observationId",
        "value": "7325f3ca9bc68459936b360a80ab725cb18a772aa48fd9d72e7f8bd0eb674635"
      } ],
      "status": "final",
      "category": [ {
        "coding": [ {
          "system": "http://terminology.hl7.org/CodeSystem/observation-category",
          "code": "survey",
          "display": "Survey"
        } ]
      } ],
      "code": {
        "coding": [ {
          "system": "https://www.netzwerk-universitaetsmedizin.de/fhir/CodeSystem/ecrf-parameter-codes",
          "code": "01",
          "display": "Is the patient in the intensive care unit?"
        } ]
      },
      "subject": {
        "reference": "Patient/d257b1da81b09f2cd05310abe5f920df6a9202de1cc371159676d11b1ff5696f"
      },
      "encounter": {
        "reference": "Encounter/c29c6edd49167c69995b139fa51a4a3c149516808d5bf146ab5291ad4a8b7ae8"
      },
      "_effectiveDateTime": {
        "extension": [ {
          "url": "http://hl7.org/fhir/StructureDefinition/data-absent-reason",
          "valueCode": "unknown"
        } ]
      },
      "valueCodeableConcept": {
        "coding": [ {
          "system": "http://snomed.info/sct",
          "code": "373067005"
        } ]
      }
    },
    "request": {
      "method": "POST",
      "url": "Observation",
      "ifNoneExist": "identifier=https://mein.krankenhaus.de/fhir/NamingSystem/observationId|f57d5aa438376b30fe62ccafe7ebf8ed90ac4954ad750a18eb5743b63787e1eb"
    }
  }, {
    "fullUrl": "Condition/1dba06df9ddf0efcd255620009c2bce694bc333fb19736c979b7db434860149a",
    "resource": {
      "resourceType": "Condition",
      "meta": {
        "profile": [ "https://www.netzwerk-universitaetsmedizin.de/fhir/StructureDefinition/dependence-on-ventilator" ]
      },
      "identifier": [ {
        "system": "https://mein.krankenhaus.de/fhir/NamingSystem/conditionId",
        "value": "7bb171c50fee712b1dbcad6622292e9217e063c398bf6c1be1de8edffceafb36"
      } ],
      "clinicalStatus": {
        "coding": [ {
          "system": "http://terminology.hl7.org/CodeSystem/condition-clinical",
          "code": "active",
          "display": "Active"
        } ]
      },
      "verificationStatus": {
        "coding": [ {
          "system": "http://terminology.hl7.org/CodeSystem/condition-ver-status",
          "code": "refuted",
          "display": "Refuted"
        }, {
          "system": "http://snomed.info/sct",
          "code": "410594000",
          "display": "Definitely NOT present (qualifier value)"
        } ]
      },
      "category": [ {
        "coding": [ {
          "system": "http://snomed.info/sct",
          "code": "404989005",
          "display": "Ventilation status (observable entity)"
        } ]
      } ],
      "code": {
        "coding": [ {
          "system": "http://snomed.info/sct",
          "code": "444932008"
        } ]
      },
      "subject": {
        "reference": "Patient/d257b1da81b09f2cd05310abe5f920df6a9202de1cc371159676d11b1ff5696f"
      },
      "encounter": {
        "reference": "Encounter/c29c6edd49167c69995b139fa51a4a3c149516808d5bf146ab5291ad4a8b7ae8"
      },
      "_recordedDate": {
        "extension": [ {
          "url": "http://hl7.org/fhir/StructureDefinition/data-absent-reason",
          "valueCode": "unknown"
        } ]
      }
    },
    "request": {
      "method": "POST",
      "url": "Condition",
      "ifNoneExist": "identifier=https://mein.krankenhaus.de/fhir/NamingSystem/conditionId|1dba06df9ddf0efcd255620009c2bce694bc333fb19736c979b7db434860149a"
    }
  }, {
    "fullUrl": "Observation/b407888f0ab66bb91a9dec1aecd488ffeab4cb012e68e7520fa6fa7324f89fa8",
    "resource": {
      "resourceType": "Observation",
      "meta": {
        "profile": [ "https://www.netzwerk-universitaetsmedizin.de/fhir/StructureDefinition/discharge-disposition" ]
      },
      "identifier": [ {
        "type": {
          "coding": [ {
            "system": "http://terminology.hl7.org/CodeSystem/v2-0203",
            "code": "OBI",
            "display": "Observation Instance Identifier"
          } ]
        },
        "system": "https://mein.krankenhaus.de/fhir/NamingSystem/observationId",
        "value": "fd3c7fdcffa92a28f8ce902018c0c68b3e11aa6984cb08ca5c41cf069c9951b9",
        "assigner": {
          "reference": "Organization/3a4f3433bce81181bad2d8e0b8fafccf7dc800bc06f29be73dcb38b750a48f9a"
        }
      } ],
      "status": "final",
      "category": [ {
        "coding": [ {
          "system": "http://terminology.hl7.org/CodeSystem/observation-category",
          "code": "social-history",
          "display": "Social History"
        } ]
      } ],
      "code": {
        "coding": [ {
          "system": "http://loinc.org",
          "code": "55128-3"
        } ],
        "text": "type of Discharge"
      },
      "subject": {
        "reference": "Patient/d257b1da81b09f2cd05310abe5f920df6a9202de1cc371159676d11b1ff5696f"
      },
      "encounter": {
        "reference": "Encounter/c29c6edd49167c69995b139fa51a4a3c149516808d5bf146ab5291ad4a8b7ae8"
      },
      "_effectiveDateTime": {
        "extension": [ {
          "url": "http://hl7.org/fhir/StructureDefinition/data-absent-reason",
          "valueCode": "unknown"
        } ]
      },
      "valueCodeableConcept": {
        "coding": [ {
          "system": "http://snomed.info/sct",
          "code": "371827001"
        } ]
      }
    },
    "request": {
      "method": "POST",
      "url": "Observation",
      "ifNoneExist": "identifier=https://mein.krankenhaus.de/fhir/NamingSystem/observationId|b407888f0ab66bb91a9dec1aecd488ffeab4cb012e68e7520fa6fa7324f89fa8"
    }
  }, {
    "fullUrl": "Observation/2c015dec2af36a0ba09b31d5fca8a9f33aca52545c65de8e3b5db5cba7a3e4ac",
    "resource": {
      "resourceType": "Observation",
      "meta": {
        "profile": [ "https://www.netzwerk-universitaetsmedizin.de/fhir/StructureDefinition/sars-cov-2-rt-pcr" ]
      },
      "identifier": [ {
        "type": {
          "coding": [ {
            "system": "http://terminology.hl7.org/CodeSystem/v2-0203",
            "code": "OBI",
            "display": "Observation Instance Identifier"
          } ]
        },
        "system": "https://mein.krankenhaus.de/fhir/NamingSystem/observationId",
        "value": "93aa2602bff693a7ed53535f53dbe5c71bfa2f0abaa418b36ec5af9454b0c4af",
        "assigner": {
          "reference": "Organization/3a4f3433bce81181bad2d8e0b8fafccf7dc800bc06f29be73dcb38b750a48f9a"
        }
      } ],
      "status": "final",
      "category": [ {
        "coding": [ {
          "system": "http://terminology.hl7.org/CodeSystem/observation-category",
          "code": "laboratory",
          "display": "Laboratory"
        }, {
          "system": "http://loinc.org",
          "code": "26436-6",
          "display": "Laboratory studies (set)"
        } ]
      } ],
      "code": {
        "coding": [ {
          "system": "http://loinc.org",
          "code": "94500-6"
        } ]
      },
      "subject": {
        "reference": "Patient/d257b1da81b09f2cd05310abe5f920df6a9202de1cc371159676d11b1ff5696f"
      },
      "encounter": {
        "reference": "Encounter/c29c6edd49167c69995b139fa51a4a3c149516808d5bf146ab5291ad4a8b7ae8"
      },
      "_effectiveDateTime": {
        "extension": [ {
          "url": "http://hl7.org/fhir/StructureDefinition/data-absent-reason",
          "valueCode": "unknown"
        } ]
      },
      "valueCodeableConcept": {
        "coding": [ {
          "system": "http://snomed.info/sct",
          "code": "260415000"
        } ]
      }
    },
    "request": {
      "method": "POST",
      "url": "Observation",
      "ifNoneExist": "identifier=https://mein.krankenhaus.de/fhir/NamingSystem/observationId|2c015dec2af36a0ba09b31d5fca8a9f33aca52545c65de8e3b5db5cba7a3e4ac"
    }
  }, {
    "fullUrl": "Observation/18d2c092b296f3f75eccf4f6e0162bc03f2e0c9495fceacb33c6f47189fd4e5a",
    "resource": {
      "resourceType": "Observation",
      "meta": {
        "profile": [ "https://www.medizininformatik-initiative.de/fhir/core/modul-labor/StructureDefinition/ObservationLab" ]
      },
      "identifier": [ {
        "type": {
          "coding": [ {
            "system": "http://terminology.hl7.org/CodeSystem/v2-0203",
            "code": "OBI",
            "display": "Observation Instance Identifier"
          } ]
        },
        "system": "https://mein.krankenhaus.de/fhir/NamingSystem/observationId",
        "value": "975ae2136d79607af682a16cb889193371cbcfb08c52e927c720a02e13bf1e6a",
        "assigner": {
          "reference": "Organization/3a4f3433bce81181bad2d8e0b8fafccf7dc800bc06f29be73dcb38b750a48f9a"
        }
      } ],
      "status": "final",
      "category": [ {
        "coding": [ {
          "system": "http://terminology.hl7.org/CodeSystem/observation-category",
          "code": "laboratory",
          "display": "Laboratory"
        }, {
          "system": "http://loinc.org",
          "code": "26436-6"
        } ]
      } ],
      "code": {
        "coding": [ {
          "system": "http://loinc.org",
          "code": "48421-2",
          "display": "c-reactive-protein-in-capillary-blood"
        } ],
        "text": "crp"
      },
      "subject": {
        "reference": "Patient/d257b1da81b09f2cd05310abe5f920df6a9202de1cc371159676d11b1ff5696f"
      },
      "encounter": {
        "reference": "Encounter/c29c6edd49167c69995b139fa51a4a3c149516808d5bf146ab5291ad4a8b7ae8"
      },
      "effectiveDateTime": "2020-12-25T18:37:00+00:00",
      "valueQuantity": {
        "value": 73.36764722035774,
        "unit": "mg/L",
        "system": "http://unitsofmeasure.org",
        "code": "mg/L"
      }
    },
    "request": {
      "method": "POST",
      "url": "Observation",
      "ifNoneExist": "identifier=https://mein.krankenhaus.de/fhir/NamingSystem/observationId|18d2c092b296f3f75eccf4f6e0162bc03f2e0c9495fceacb33c6f47189fd4e5a"
    }
  }, {
    "fullUrl": "Observation/95c35acdda7e14b31a636f4326629be0ae304c55478937bcb2ea9ba52293f9b4",
    "resource": {
      "resourceType": "Observation",
      "meta": {
        "profile": [ "https://www.medizininformatik-initiative.de/fhir/core/modul-labor/StructureDefinition/ObservationLab" ]
      },
      "identifier": [ {
        "type": {
          "coding": [ {
            "system": "http://terminology.hl7.org/CodeSystem/v2-0203",
            "code": "OBI",
            "display": "Observation Instance Identifier"
          } ]
        },
        "system": "https://mein.krankenhaus.de/fhir/NamingSystem/observationId",
        "value": "9a0b97f552166899ea38bdd6c3e3fab22fb1b0d37627d1db5f5fe43df49ded17",
        "assigner": {
          "reference": "Organization/3a4f3433bce81181bad2d8e0b8fafccf7dc800bc06f29be73dcb38b750a48f9a"
        }
      } ],
      "status": "final",
      "category": [ {
        "coding": [ {
          "system": "http://terminology.hl7.org/CodeSystem/observation-category",
          "code": "laboratory",
          "display": "Laboratory"
        }, {
          "system": "http://loinc.org",
          "code": "26436-6"
        } ]
      } ],
      "code": {
        "coding": [ {
          "system": "http://loinc.org",
          "code": "14631-6",
          "display": "bilirubin.total-in-serum-or-plasma"
        } ],
        "text": "bilirubin"
      },
      "subject": {
        "reference": "Patient/d257b1da81b09f2cd05310abe5f920df6a9202de1cc371159676d11b1ff5696f"
      },
      "encounter": {
        "reference": "Encounter/c29c6edd49167c69995b139fa51a4a3c149516808d5bf146ab5291ad4a8b7ae8"
      },
      "effectiveDateTime": "2020-12-25T18:37:00+00:00",
      "valueQuantity": {
        "value": 12.607709347780482,
        "unit": "umol/L",
        "system": "http://unitsofmeasure.org",
        "code": "umol/L"
      }
    },
    "request": {
      "method": "POST",
      "url": "Observation",
      "ifNoneExist": "identifier=https://mein.krankenhaus.de/fhir/NamingSystem/observationId|95c35acdda7e14b31a636f4326629be0ae304c55478937bcb2ea9ba52293f9b4"
    }
  }, {
    "fullUrl": "Observation/1188152f7462157fb763f1c1c72e1b308c25f228e914f3e39cc96ecf7c0c8a46",
    "resource": {
      "resourceType": "Observation",
      "meta": {
        "profile": [ "https://www.medizininformatik-initiative.de/fhir/core/modul-labor/StructureDefinition/ObservationLab" ]
      },
      "identifier": [ {
        "type": {
          "coding": [ {
            "system": "http://terminology.hl7.org/CodeSystem/v2-0203",
            "code": "OBI",
            "display": "Observation Instance Identifier"
          } ]
        },
        "system": "https://mein.krankenhaus.de/fhir/NamingSystem/observationId",
        "value": "268fb300be370293b177a4c8e273fdbc12969416b73cbd98ccbac5ca74a16ea2",
        "assigner": {
          "reference": "Organization/3a4f3433bce81181bad2d8e0b8fafccf7dc800bc06f29be73dcb38b750a48f9a"
        }
      } ],
      "status": "final",
      "category": [ {
        "coding": [ {
          "system": "http://terminology.hl7.org/CodeSystem/observation-category",
          "code": "laboratory",
          "display": "Laboratory"
        }, {
          "system": "http://loinc.org",
          "code": "26436-6"
        } ]
      } ],
      "code": {
        "coding": [ {
          "system": "http://loinc.org",
          "code": "71427-9",
          "display": "fibrin-d-dimer-feu-in-blood-by-immunoassay"
        } ],
        "text": "ddimer"
      },
      "subject": {
        "reference": "Patient/d257b1da81b09f2cd05310abe5f920df6a9202de1cc371159676d11b1ff5696f"
      },
      "encounter": {
        "reference": "Encounter/c29c6edd49167c69995b139fa51a4a3c149516808d5bf146ab5291ad4a8b7ae8"
      },
      "effectiveDateTime": "2020-12-25T18:37:00+00:00",
      "valueQuantity": {
        "value": 56.74994112989534,
        "unit": "ug/mL{FEU}",
        "system": "http://unitsofmeasure.org",
        "code": "ug/mL{FEU}"
      }
    },
    "request": {
      "method": "POST",
      "url": "Observation",
      "ifNoneExist": "identifier=https://mein.krankenhaus.de/fhir/NamingSystem/observationId|1188152f7462157fb763f1c1c72e1b308c25f228e914f3e39cc96ecf7c0c8a46"
    }
  }, {
    "fullUrl": "Observation/814587c55eae7ad619d7dc5690e8f116a8681bec305489e6742555eee9895db1",
    "resource": {
      "resourceType": "Observation",
      "meta": {
        "profile": [ "https://www.medizininformatik-initiative.de/fhir/core/modul-labor/StructureDefinition/ObservationLab" ]
      },
      "identifier": [ {
        "type": {
          "coding": [ {
            "system": "http://terminology.hl7.org/CodeSystem/v2-0203",
            "code": "OBI",
            "display": "Observation Instance Identifier"
          } ]
        },
        "system": "https://mein.krankenhaus.de/fhir/NamingSystem/observationId",
        "value": "1823c9b1a939ed440266ddefc454ac3244282af738b41de0f0946344b43e7bcf",
        "assigner": {
          "reference": "Organization/3a4f3433bce81181bad2d8e0b8fafccf7dc800bc06f29be73dcb38b750a48f9a"
        }
      } ],
      "status": "final",
      "category": [ {
        "coding": [ {
          "system": "http://terminology.hl7.org/CodeSystem/observation-category",
          "code": "laboratory",
          "display": "Laboratory"
        }, {
          "system": "http://loinc.org",
          "code": "26436-6"
        } ]
      } ],
      "code": {
        "coding": [ {
          "system": "http://loinc.org",
          "code": "2324-2",
          "display": "gamma-glutamyl-transferase-in-serum-or-plasma"
        } ],
        "text": "gammagt"
      },
      "subject": {
        "reference": "Patient/d257b1da81b09f2cd05310abe5f920df6a9202de1cc371159676d11b1ff5696f"
      },
      "encounter": {
        "reference": "Encounter/c29c6edd49167c69995b139fa51a4a3c149516808d5bf146ab5291ad4a8b7ae8"
      },
      "effectiveDateTime": "2020-12-25T18:37:00+00:00",
      "valueQuantity": {
        "value": 82.53527885091322,
        "unit": "U/L",
        "system": "http://unitsofmeasure.org",
        "code": "U/L"
      }
    },
    "request": {
      "method": "POST",
      "url": "Observation",
      "ifNoneExist": "identifier=https://mein.krankenhaus.de/fhir/NamingSystem/observationId|814587c55eae7ad619d7dc5690e8f116a8681bec305489e6742555eee9895db1"
    }
  }, {
    "fullUrl": "Observation/21336d45c5396d69f3d4a7f4b7a712cf18057bc3b29ba7a263e8c92d0f656d57",
    "resource": {
      "resourceType": "Observation",
      "meta": {
        "profile": [ "https://www.medizininformatik-initiative.de/fhir/core/modul-labor/StructureDefinition/ObservationLab" ]
      },
      "identifier": [ {
        "type": {
          "coding": [ {
            "system": "http://terminology.hl7.org/CodeSystem/v2-0203",
            "code": "OBI",
            "display": "Observation Instance Identifier"
          } ]
        },
        "system": "https://mein.krankenhaus.de/fhir/NamingSystem/observationId",
        "value": "472cb126197e600e821bf1c9f62963a5fc7fe12ba99e2d6d4143212406810e20",
        "assigner": {
          "reference": "Organization/3a4f3433bce81181bad2d8e0b8fafccf7dc800bc06f29be73dcb38b750a48f9a"
        }
      } ],
      "status": "final",
      "category": [ {
        "coding": [ {
          "system": "http://terminology.hl7.org/CodeSystem/observation-category",
          "code": "laboratory",
          "display": "Laboratory"
        }, {
          "system": "http://loinc.org",
          "code": "26436-6"
        } ]
      } ],
      "code": {
        "coding": [ {
          "system": "http://loinc.org",
          "code": "88112-8",
          "display": "aspartate-aminotransferase-in-serum-or-plasma-by-no-addition-of-p-5-p"
        } ],
        "text": "gotast"
      },
      "subject": {
        "reference": "Patient/d257b1da81b09f2cd05310abe5f920df6a9202de1cc371159676d11b1ff5696f"
      },
      "encounter": {
        "reference": "Encounter/c29c6edd49167c69995b139fa51a4a3c149516808d5bf146ab5291ad4a8b7ae8"
      },
      "effectiveDateTime": "2020-12-25T18:37:00+00:00",
      "valueQuantity": {
        "value": 28.991626690702365,
        "unit": "U/L",
        "system": "http://unitsofmeasure.org",
        "code": "U/L"
      }
    },
    "request": {
      "method": "POST",
      "url": "Observation",
      "ifNoneExist": "identifier=https://mein.krankenhaus.de/fhir/NamingSystem/observationId|21336d45c5396d69f3d4a7f4b7a712cf18057bc3b29ba7a263e8c92d0f656d57"
    }
  }, {
    "fullUrl": "Observation/89e9f73750d9a0f11ec597c053044cf38a0f1bb5c43124f02ef7f3cb93d424aa",
    "resource": {
      "resourceType": "Observation",
      "meta": {
        "profile": [ "https://www.medizininformatik-initiative.de/fhir/core/modul-labor/StructureDefinition/ObservationLab" ]
      },
      "identifier": [ {
        "type": {
          "coding": [ {
            "system": "http://terminology.hl7.org/CodeSystem/v2-0203",
            "code": "OBI",
            "display": "Observation Instance Identifier"
          } ]
        },
        "system": "https://mein.krankenhaus.de/fhir/NamingSystem/observationId",
        "value": "c4c775a651587f78f04928cb0e35b3c28f90aae2b54b087914f051a526f69a26",
        "assigner": {
          "reference": "Organization/3a4f3433bce81181bad2d8e0b8fafccf7dc800bc06f29be73dcb38b750a48f9a"
        }
      } ],
      "status": "final",
      "category": [ {
        "coding": [ {
          "system": "http://terminology.hl7.org/CodeSystem/observation-category",
          "code": "laboratory",
          "display": "Laboratory"
        }, {
          "system": "http://loinc.org",
          "code": "26436-6"
        } ]
      } ],
      "code": {
        "coding": [ {
          "system": "http://loinc.org",
          "code": "60017-1",
          "display": "lactate-dehydrogenase-in-body-fluid-by-pyruvate-to-lactate-reaction"
        } ],
        "text": "ldh"
      },
      "subject": {
        "reference": "Patient/d257b1da81b09f2cd05310abe5f920df6a9202de1cc371159676d11b1ff5696f"
      },
      "encounter": {
        "reference": "Encounter/c29c6edd49167c69995b139fa51a4a3c149516808d5bf146ab5291ad4a8b7ae8"
      },
      "effectiveDateTime": "2020-12-25T18:37:00+00:00",
      "valueQuantity": {
        "value": 32.1523458752481,
        "unit": "U/L",
        "system": "http://unitsofmeasure.org",
        "code": "U/L"
      }
    },
    "request": {
      "method": "POST",
      "url": "Observation",
      "ifNoneExist": "identifier=https://mein.krankenhaus.de/fhir/NamingSystem/observationId|89e9f73750d9a0f11ec597c053044cf38a0f1bb5c43124f02ef7f3cb93d424aa"
    }
  }, {
    "fullUrl": "Observation/ae8956bca64510884bdd1fbc79683169452621d9aa57f5794fa22f4126790866",
    "resource": {
      "resourceType": "Observation",
      "meta": {
        "profile": [ "https://www.medizininformatik-initiative.de/fhir/core/modul-labor/StructureDefinition/ObservationLab" ]
      },
      "identifier": [ {
        "type": {
          "coding": [ {
            "system": "http://terminology.hl7.org/CodeSystem/v2-0203",
            "code": "OBI",
            "display": "Observation Instance Identifier"
          } ]
        },
        "system": "https://mein.krankenhaus.de/fhir/NamingSystem/observationId",
        "value": "098d0f724790b9105150d143ee51adfd76e02b49197cc0229904348d4798e1db",
        "assigner": {
          "reference": "Organization/3a4f3433bce81181bad2d8e0b8fafccf7dc800bc06f29be73dcb38b750a48f9a"
        }
      } ],
      "status": "final",
      "category": [ {
        "coding": [ {
          "system": "http://terminology.hl7.org/CodeSystem/observation-category",
          "code": "laboratory",
          "display": "Laboratory"
        }, {
          "system": "http://loinc.org",
          "code": "26436-6"
        } ]
      } ],
      "code": {
        "coding": [ {
          "system": "http://loinc.org",
          "code": "10839-9",
          "display": "troponin-i.cardiac-in-serum-or-plasma"
        } ],
        "text": "kardiale_troponine"
      },
      "subject": {
        "reference": "Patient/d257b1da81b09f2cd05310abe5f920df6a9202de1cc371159676d11b1ff5696f"
      },
      "encounter": {
        "reference": "Encounter/c29c6edd49167c69995b139fa51a4a3c149516808d5bf146ab5291ad4a8b7ae8"
      },
      "effectiveDateTime": "2020-12-25T18:37:00+00:00",
      "valueQuantity": {
        "value": 74.42395254081379,
        "unit": "ug/L",
        "system": "http://unitsofmeasure.org",
        "code": "ug/L"
      }
    },
    "request": {
      "method": "POST",
      "url": "Observation",
      "ifNoneExist": "identifier=https://mein.krankenhaus.de/fhir/NamingSystem/observationId|ae8956bca64510884bdd1fbc79683169452621d9aa57f5794fa22f4126790866"
    }
  }, {
    "fullUrl": "Observation/b05b41b88207b124f2c7d6e0b1fd6dea7d43c2dcafa9516a0ec74c10c854a225",
    "resource": {
      "resourceType": "Observation",
      "meta": {
        "profile": [ "https://www.medizininformatik-initiative.de/fhir/core/modul-labor/StructureDefinition/ObservationLab" ]
      },
      "identifier": [ {
        "type": {
          "coding": [ {
            "system": "http://terminology.hl7.org/CodeSystem/v2-0203",
            "code": "OBI",
            "display": "Observation Instance Identifier"
          } ]
        },
        "system": "https://mein.krankenhaus.de/fhir/NamingSystem/observationId",
        "value": "9330b8ba42d82b3d1b26f0611759e92924d8dfefadc4eda0b305073290878620",
        "assigner": {
          "reference": "Organization/3a4f3433bce81181bad2d8e0b8fafccf7dc800bc06f29be73dcb38b750a48f9a"
        }
      } ],
      "status": "final",
      "category": [ {
        "coding": [ {
          "system": "http://terminology.hl7.org/CodeSystem/observation-category",
          "code": "laboratory",
          "display": "Laboratory"
        }, {
          "system": "http://loinc.org",
          "code": "26436-6"
        } ]
      } ],
      "code": {
        "coding": [ {
          "system": "http://loinc.org",
          "code": "14775-1",
          "display": "hemoglobin-in-arterial-blood-by-oximetry"
        } ],
        "text": "hamoglobin"
      },
      "subject": {
        "reference": "Patient/d257b1da81b09f2cd05310abe5f920df6a9202de1cc371159676d11b1ff5696f"
      },
      "encounter": {
        "reference": "Encounter/c29c6edd49167c69995b139fa51a4a3c149516808d5bf146ab5291ad4a8b7ae8"
      },
      "effectiveDateTime": "2020-12-25T18:37:00+00:00",
      "valueQuantity": {
        "value": 90.62790903039392,
        "unit": "g/dL",
        "system": "http://unitsofmeasure.org",
        "code": "g/dL"
      }
    },
    "request": {
      "method": "POST",
      "url": "Observation",
      "ifNoneExist": "identifier=https://mein.krankenhaus.de/fhir/NamingSystem/observationId|b05b41b88207b124f2c7d6e0b1fd6dea7d43c2dcafa9516a0ec74c10c854a225"
    }
  }, {
    "fullUrl": "Observation/5597e83c1d68ba8bb6b2e140e21a789d37b18086aa2838011d29cbaaf0d261b2",
    "resource": {
      "resourceType": "Observation",
      "meta": {
        "profile": [ "https://www.medizininformatik-initiative.de/fhir/core/modul-labor/StructureDefinition/ObservationLab" ]
      },
      "identifier": [ {
        "type": {
          "coding": [ {
            "system": "http://terminology.hl7.org/CodeSystem/v2-0203",
            "code": "OBI",
            "display": "Observation Instance Identifier"
          } ]
        },
        "system": "https://mein.krankenhaus.de/fhir/NamingSystem/observationId",
        "value": "237aed51bba9821753f186285e5559a602fa49d5512476bdff8d911053be169b",
        "assigner": {
          "reference": "Organization/3a4f3433bce81181bad2d8e0b8fafccf7dc800bc06f29be73dcb38b750a48f9a"
        }
      } ],
      "status": "final",
      "category": [ {
        "coding": [ {
          "system": "http://terminology.hl7.org/CodeSystem/observation-category",
          "code": "laboratory",
          "display": "Laboratory"
        }, {
          "system": "http://loinc.org",
          "code": "26436-6"
        } ]
      } ],
      "code": {
        "coding": [ {
          "system": "http://loinc.org",
          "code": "14682-9"
        }, {
          "system": "http://loinc.org",
          "code": "2160-0"
        }, {
          "system": "http://loinc.org",
          "code": "21232-4"
        }, {
          "system": "http://loinc.org",
          "code": "25386-4"
        }, {
          "system": "http://loinc.org",
          "code": "12190-5"
        }, {
          "system": "http://loinc.org",
          "code": "59826-8"
        }, {
          "system": "http://loinc.org",
          "code": "38483-4"
        } ],
        "text": "kreatinin"
      },
      "subject": {
        "reference": "Patient/d257b1da81b09f2cd05310abe5f920df6a9202de1cc371159676d11b1ff5696f"
      },
      "encounter": {
        "reference": "Encounter/c29c6edd49167c69995b139fa51a4a3c149516808d5bf146ab5291ad4a8b7ae8"
      },
      "effectiveDateTime": "2020-12-25T18:37:00+00:00",
      "valueQuantity": {
        "value": 64.71251348987552,
        "unit": "umol/L",
        "system": "http://unitsofmeasure.org",
        "code": "umol/L"
      }
    },
    "request": {
      "method": "POST",
      "url": "Observation",
      "ifNoneExist": "identifier=https://mein.krankenhaus.de/fhir/NamingSystem/observationId|5597e83c1d68ba8bb6b2e140e21a789d37b18086aa2838011d29cbaaf0d261b2"
    }
  }, {
    "fullUrl": "Observation/7b79d02ce77e263ee5713124b831284e462acd984e850a9e56771d99fbb15fc3",
    "resource": {
      "resourceType": "Observation",
      "meta": {
        "profile": [ "https://www.medizininformatik-initiative.de/fhir/core/modul-labor/StructureDefinition/ObservationLab" ]
      },
      "identifier": [ {
        "type": {
          "coding": [ {
            "system": "http://terminology.hl7.org/CodeSystem/v2-0203",
            "code": "OBI",
            "display": "Observation Instance Identifier"
          } ]
        },
        "system": "https://mein.krankenhaus.de/fhir/NamingSystem/observationId",
        "value": "8604410cc09c25aaeb00f310a57e28280a9d56692d6c8ae51c9bef2a08fd56a5",
        "assigner": {
          "reference": "Organization/3a4f3433bce81181bad2d8e0b8fafccf7dc800bc06f29be73dcb38b750a48f9a"
        }
      } ],
      "status": "final",
      "category": [ {
        "coding": [ {
          "system": "http://terminology.hl7.org/CodeSystem/observation-category",
          "code": "laboratory",
          "display": "Laboratory"
        }, {
          "system": "http://loinc.org",
          "code": "26436-6"
        } ]
      } ],
      "code": {
        "coding": [ {
          "system": "http://loinc.org",
          "code": "14118-4",
          "display": "lactate-in-serum-or-plasma"
        } ],
        "text": "laktat"
      },
      "subject": {
        "reference": "Patient/d257b1da81b09f2cd05310abe5f920df6a9202de1cc371159676d11b1ff5696f"
      },
      "encounter": {
        "reference": "Encounter/c29c6edd49167c69995b139fa51a4a3c149516808d5bf146ab5291ad4a8b7ae8"
      },
      "effectiveDateTime": "2020-12-25T18:37:00+00:00",
      "valueQuantity": {
        "value": 24.834159529154597,
        "unit": "mg/dL",
        "system": "http://unitsofmeasure.org",
        "code": "mg/dL"
      }
    },
    "request": {
      "method": "POST",
      "url": "Observation",
      "ifNoneExist": "identifier=https://mein.krankenhaus.de/fhir/NamingSystem/observationId|7b79d02ce77e263ee5713124b831284e462acd984e850a9e56771d99fbb15fc3"
    }
  }, {
    "fullUrl": "Observation/db5c63437bf26bfed8357b04d105d7658bb2c0d9a53bb60541e99275f31f4a74",
    "resource": {
      "resourceType": "Observation",
      "meta": {
        "profile": [ "https://www.medizininformatik-initiative.de/fhir/core/modul-labor/StructureDefinition/ObservationLab" ]
      },
      "identifier": [ {
        "type": {
          "coding": [ {
            "system": "http://terminology.hl7.org/CodeSystem/v2-0203",
            "code": "OBI",
            "display": "Observation Instance Identifier"
          } ]
        },
        "system": "https://mein.krankenhaus.de/fhir/NamingSystem/observationId",
        "value": "399482403b70e49983ee77cda2725831d0a73fae049301b5c44e79fb1901b9d6",
        "assigner": {
          "reference": "Organization/3a4f3433bce81181bad2d8e0b8fafccf7dc800bc06f29be73dcb38b750a48f9a"
        }
      } ],
      "status": "final",
      "category": [ {
        "coding": [ {
          "system": "http://terminology.hl7.org/CodeSystem/observation-category",
          "code": "laboratory",
          "display": "Laboratory"
        }, {
          "system": "http://loinc.org",
          "code": "26436-6"
        } ]
      } ],
      "code": {
        "coding": [ {
          "system": "http://loinc.org",
          "code": "49498-9",
          "display": "leukocytes-in-blood-by-estimate"
        } ],
        "text": "leukozyten_absolut"
      },
      "subject": {
        "reference": "Patient/d257b1da81b09f2cd05310abe5f920df6a9202de1cc371159676d11b1ff5696f"
      },
      "encounter": {
        "reference": "Encounter/c29c6edd49167c69995b139fa51a4a3c149516808d5bf146ab5291ad4a8b7ae8"
      },
      "effectiveDateTime": "2020-12-25T18:37:00+00:00",
      "valueQuantity": {
        "value": 84.27122210894676,
        "unit": "10*3/uL",
        "system": "http://unitsofmeasure.org",
        "code": "10*3/uL"
      }
    },
    "request": {
      "method": "POST",
      "url": "Observation",
      "ifNoneExist": "identifier=https://mein.krankenhaus.de/fhir/NamingSystem/observationId|db5c63437bf26bfed8357b04d105d7658bb2c0d9a53bb60541e99275f31f4a74"
    }
  }, {
    "fullUrl": "Observation/9db575629f49d81b83064f730c2472c0876dc0623a6943258284ea5711da6873",
    "resource": {
      "resourceType": "Observation",
      "meta": {
        "profile": [ "https://www.medizininformatik-initiative.de/fhir/core/modul-labor/StructureDefinition/ObservationLab" ]
      },
      "identifier": [ {
        "type": {
          "coding": [ {
            "system": "http://terminology.hl7.org/CodeSystem/v2-0203",
            "code": "OBI",
            "display": "Observation Instance Identifier"
          } ]
        },
        "system": "https://mein.krankenhaus.de/fhir/NamingSystem/observationId",
        "value": "959b16e59a3620841aa2a5bfcf5e7f741b39e0f40b017d679669c9343b173d37",
        "assigner": {
          "reference": "Organization/3a4f3433bce81181bad2d8e0b8fafccf7dc800bc06f29be73dcb38b750a48f9a"
        }
      } ],
      "status": "final",
      "category": [ {
        "coding": [ {
          "system": "http://terminology.hl7.org/CodeSystem/observation-category",
          "code": "laboratory",
          "display": "Laboratory"
        }, {
          "system": "http://loinc.org",
          "code": "26436-6"
        } ]
      } ],
      "code": {
        "coding": [ {
          "system": "http://loinc.org",
          "code": "731-0",
          "display": "lymphocytes-in-blood-by-automated-count"
        } ],
        "text": "lymphozyten_absolut"
      },
      "subject": {
        "reference": "Patient/d257b1da81b09f2cd05310abe5f920df6a9202de1cc371159676d11b1ff5696f"
      },
      "encounter": {
        "reference": "Encounter/c29c6edd49167c69995b139fa51a4a3c149516808d5bf146ab5291ad4a8b7ae8"
      },
      "effectiveDateTime": "2020-12-25T18:37:00+00:00",
      "valueQuantity": {
        "value": 35.92887379224044,
        "unit": "10*3/uL",
        "system": "http://unitsofmeasure.org",
        "code": "10*3/uL"
      }
    },
    "request": {
      "method": "POST",
      "url": "Observation",
      "ifNoneExist": "identifier=https://mein.krankenhaus.de/fhir/NamingSystem/observationId|9db575629f49d81b83064f730c2472c0876dc0623a6943258284ea5711da6873"
    }
  }, {
    "fullUrl": "Observation/0f5bae16fa00492ca7d129f061f95c1592b1d790e15a50e5ec993f2829b73d39",
    "resource": {
      "resourceType": "Observation",
      "meta": {
        "profile": [ "https://www.medizininformatik-initiative.de/fhir/core/modul-labor/StructureDefinition/ObservationLab" ]
      },
      "identifier": [ {
        "type": {
          "coding": [ {
            "system": "http://terminology.hl7.org/CodeSystem/v2-0203",
            "code": "OBI",
            "display": "Observation Instance Identifier"
          } ]
        },
        "system": "https://mein.krankenhaus.de/fhir/NamingSystem/observationId",
        "value": "612ce6f59060a059a87f8266609045c3aea000a8f11ed16d9c171ed444774964",
        "assigner": {
          "reference": "Organization/3a4f3433bce81181bad2d8e0b8fafccf7dc800bc06f29be73dcb38b750a48f9a"
        }
      } ],
      "status": "final",
      "category": [ {
        "coding": [ {
          "system": "http://terminology.hl7.org/CodeSystem/observation-category",
          "code": "laboratory",
          "display": "Laboratory"
        }, {
          "system": "http://loinc.org",
          "code": "26436-6"
        } ]
      } ],
      "code": {
        "coding": [ {
          "system": "http://loinc.org",
          "code": "26499-4",
          "display": "neutrophils-in-blood"
        } ],
        "text": "neutrophile_absolut"
      },
      "subject": {
        "reference": "Patient/d257b1da81b09f2cd05310abe5f920df6a9202de1cc371159676d11b1ff5696f"
      },
      "encounter": {
        "reference": "Encounter/c29c6edd49167c69995b139fa51a4a3c149516808d5bf146ab5291ad4a8b7ae8"
      },
      "effectiveDateTime": "2020-12-25T18:37:00+00:00",
      "valueQuantity": {
        "value": 57.092404116969576,
        "unit": "10*3/uL",
        "system": "http://unitsofmeasure.org",
        "code": "10*3/uL"
      }
    },
    "request": {
      "method": "POST",
      "url": "Observation",
      "ifNoneExist": "identifier=https://mein.krankenhaus.de/fhir/NamingSystem/observationId|0f5bae16fa00492ca7d129f061f95c1592b1d790e15a50e5ec993f2829b73d39"
    }
  }, {
    "fullUrl": "Observation/ec55a81967c2b4b3601756bcbac6898281b28cd115438e8db5a6673085c8f545",
    "resource": {
      "resourceType": "Observation",
      "meta": {
        "profile": [ "https://www.medizininformatik-initiative.de/fhir/core/modul-labor/StructureDefinition/ObservationLab" ]
      },
      "identifier": [ {
        "type": {
          "coding": [ {
            "system": "http://terminology.hl7.org/CodeSystem/v2-0203",
            "code": "OBI",
            "display": "Observation Instance Identifier"
          } ]
        },
        "system": "https://mein.krankenhaus.de/fhir/NamingSystem/observationId",
        "value": "b616307ae89fb1425404cba7d9554d7b148acd0f9da6481efb5f5abdd00f21a5",
        "assigner": {
          "reference": "Organization/3a4f3433bce81181bad2d8e0b8fafccf7dc800bc06f29be73dcb38b750a48f9a"
        }
      } ],
      "status": "final",
      "category": [ {
        "coding": [ {
          "system": "http://terminology.hl7.org/CodeSystem/observation-category",
          "code": "laboratory",
          "display": "Laboratory"
        }, {
          "system": "http://loinc.org",
          "code": "26436-6"
        } ]
      } ],
      "code": {
        "coding": [ {
          "system": "http://loinc.org",
          "code": "16631-4"
        }, {
          "system": "http://loinc.org",
          "code": "43734-3"
        }, {
          "system": "http://loinc.org",
          "code": "14979-9"
        }, {
          "system": "http://loinc.org",
          "code": "3173-2"
        } ],
        "text": "ptt"
      },
      "subject": {
        "reference": "Patient/d257b1da81b09f2cd05310abe5f920df6a9202de1cc371159676d11b1ff5696f"
      },
      "encounter": {
        "reference": "Encounter/c29c6edd49167c69995b139fa51a4a3c149516808d5bf146ab5291ad4a8b7ae8"
      },
      "effectiveDateTime": "2020-12-25T18:37:00+00:00",
      "valueQuantity": {
        "value": 10.340419637301146,
        "unit": "s",
        "system": "http://unitsofmeasure.org",
        "code": "s"
      }
    },
    "request": {
      "method": "POST",
      "url": "Observation",
      "ifNoneExist": "identifier=https://mein.krankenhaus.de/fhir/NamingSystem/observationId|ec55a81967c2b4b3601756bcbac6898281b28cd115438e8db5a6673085c8f545"
    }
  }, {
    "fullUrl": "Observation/1a9440e28ab0e9a3affd78d04b38e9fe18b862738736074dd84359f465341c0c",
    "resource": {
      "resourceType": "Observation",
      "meta": {
        "profile": [ "https://www.medizininformatik-initiative.de/fhir/core/modul-labor/StructureDefinition/ObservationLab" ]
      },
      "identifier": [ {
        "type": {
          "coding": [ {
            "system": "http://terminology.hl7.org/CodeSystem/v2-0203",
            "code": "OBI",
            "display": "Observation Instance Identifier"
          } ]
        },
        "system": "https://mein.krankenhaus.de/fhir/NamingSystem/observationId",
        "value": "230e4c6e3345bc2bf440a36e5b7d84651a7016ec4c3021a2be028f7b4ad381dd",
        "assigner": {
          "reference": "Organization/3a4f3433bce81181bad2d8e0b8fafccf7dc800bc06f29be73dcb38b750a48f9a"
        }
      } ],
      "status": "final",
      "category": [ {
        "coding": [ {
          "system": "http://terminology.hl7.org/CodeSystem/observation-category",
          "code": "laboratory",
          "display": "Laboratory"
        }, {
          "system": "http://loinc.org",
          "code": "26436-6"
        } ]
      } ],
      "code": {
        "coding": [ {
          "system": "http://loinc.org",
          "code": "74775-8"
        }, {
          "system": "http://loinc.org",
          "code": "13056-7"
        }, {
          "system": "http://loinc.org",
          "code": "26516-5"
        }, {
          "system": "http://loinc.org",
          "code": "74464-9"
        }, {
          "system": "http://loinc.org",
          "code": "778-1"
        }, {
          "system": "http://loinc.org",
          "code": "49497-1"
        }, {
          "system": "http://loinc.org",
          "code": "777-3"
        }, {
          "system": "http://loinc.org",
          "code": "26515-7"
        } ],
        "text": "thrombozyten_absolut"
      },
      "subject": {
        "reference": "Patient/d257b1da81b09f2cd05310abe5f920df6a9202de1cc371159676d11b1ff5696f"
      },
      "encounter": {
        "reference": "Encounter/c29c6edd49167c69995b139fa51a4a3c149516808d5bf146ab5291ad4a8b7ae8"
      },
      "effectiveDateTime": "2020-12-25T18:37:00+00:00",
      "valueQuantity": {
        "value": 97.49828640553427,
        "unit": "10*3/uL",
        "system": "http://unitsofmeasure.org",
        "code": "10*3/uL"
      }
    },
    "request": {
      "method": "POST",
      "url": "Observation",
      "ifNoneExist": "identifier=https://mein.krankenhaus.de/fhir/NamingSystem/observationId|1a9440e28ab0e9a3affd78d04b38e9fe18b862738736074dd84359f465341c0c"
    }
  }, {
    "fullUrl": "Observation/149526944141c2bb9340343fd0309743c7b697fade78cf9a6cc538f5d64734d1",
    "resource": {
      "resourceType": "Observation",
      "meta": {
        "profile": [ "https://www.medizininformatik-initiative.de/fhir/core/modul-labor/StructureDefinition/ObservationLab" ]
      },
      "identifier": [ {
        "type": {
          "coding": [ {
            "system": "http://terminology.hl7.org/CodeSystem/v2-0203",
            "code": "OBI",
            "display": "Observation Instance Identifier"
          } ]
        },
        "system": "https://mein.krankenhaus.de/fhir/NamingSystem/observationId",
        "value": "99b2777ae4ba5f861bd10b15c724d284d2782def39d36a1f8085d0598cb044de",
        "assigner": {
          "reference": "Organization/3a4f3433bce81181bad2d8e0b8fafccf7dc800bc06f29be73dcb38b750a48f9a"
        }
      } ],
      "status": "final",
      "category": [ {
        "coding": [ {
          "system": "http://terminology.hl7.org/CodeSystem/observation-category",
          "code": "laboratory",
          "display": "Laboratory"
        }, {
          "system": "http://loinc.org",
          "code": "26436-6"
        } ]
      } ],
      "code": {
        "coding": [ {
          "system": "http://loinc.org",
          "code": "34714-6",
          "display": "inr-in-blood-by-coagulation-assay"
        } ],
        "text": "inr"
      },
      "subject": {
        "reference": "Patient/d257b1da81b09f2cd05310abe5f920df6a9202de1cc371159676d11b1ff5696f"
      },
      "encounter": {
        "reference": "Encounter/c29c6edd49167c69995b139fa51a4a3c149516808d5bf146ab5291ad4a8b7ae8"
      },
      "effectiveDateTime": "2020-12-25T18:37:00+00:00",
      "valueQuantity": {
        "value": 51.497687305359975,
        "unit": "{INR}",
        "system": "http://unitsofmeasure.org",
        "code": "{INR}"
      }
    },
    "request": {
      "method": "POST",
      "url": "Observation",
      "ifNoneExist": "identifier=https://mein.krankenhaus.de/fhir/NamingSystem/observationId|149526944141c2bb9340343fd0309743c7b697fade78cf9a6cc538f5d64734d1"
    }
  }, {
    "fullUrl": "Observation/cec32e5e2ffcb5399e8d0f6acdaef98c644e5a6f472c56cc8ab64156745f657b",
    "resource": {
      "resourceType": "Observation",
      "meta": {
        "profile": [ "https://www.medizininformatik-initiative.de/fhir/core/modul-labor/StructureDefinition/ObservationLab" ]
      },
      "identifier": [ {
        "type": {
          "coding": [ {
            "system": "http://terminology.hl7.org/CodeSystem/v2-0203",
            "code": "OBI",
            "display": "Observation Instance Identifier"
          } ]
        },
        "system": "https://mein.krankenhaus.de/fhir/NamingSystem/observationId",
        "value": "eae3b4248be3d94bce95d7a1c5f47d064540c2a461c50bb6c5021e133e4e29cb",
        "assigner": {
          "reference": "Organization/3a4f3433bce81181bad2d8e0b8fafccf7dc800bc06f29be73dcb38b750a48f9a"
        }
      } ],
      "status": "final",
      "category": [ {
        "coding": [ {
          "system": "http://terminology.hl7.org/CodeSystem/observation-category",
          "code": "laboratory",
          "display": "Laboratory"
        }, {
          "system": "http://loinc.org",
          "code": "26436-6"
        } ]
      } ],
      "code": {
        "coding": [ {
          "system": "http://loinc.org",
          "code": "62235-7",
          "display": "albumin-in-serum-or-plasma-by-bromocresol-green-bcg-dye-binding-method"
        } ],
        "text": "serumalbumin"
      },
      "subject": {
        "reference": "Patient/d257b1da81b09f2cd05310abe5f920df6a9202de1cc371159676d11b1ff5696f"
      },
      "encounter": {
        "reference": "Encounter/c29c6edd49167c69995b139fa51a4a3c149516808d5bf146ab5291ad4a8b7ae8"
      },
      "effectiveDateTime": "2020-12-25T18:37:00+00:00",
      "valueQuantity": {
        "value": 58.00488670700595,
        "unit": "umol/L",
        "system": "http://unitsofmeasure.org",
        "code": "umol/L"
      }
    },
    "request": {
      "method": "POST",
      "url": "Observation",
      "ifNoneExist": "identifier=https://mein.krankenhaus.de/fhir/NamingSystem/observationId|cec32e5e2ffcb5399e8d0f6acdaef98c644e5a6f472c56cc8ab64156745f657b"
    }
  }, {
    "fullUrl": "Observation/2c361668db82a68e70d14a7cddce11e01862450ed627ded3f22b2e1ef730ee43",
    "resource": {
      "resourceType": "Observation",
      "meta": {
        "profile": [ "https://www.medizininformatik-initiative.de/fhir/core/modul-labor/StructureDefinition/ObservationLab" ]
      },
      "identifier": [ {
        "type": {
          "coding": [ {
            "system": "http://terminology.hl7.org/CodeSystem/v2-0203",
            "code": "OBI",
            "display": "Observation Instance Identifier"
          } ]
        },
        "system": "https://mein.krankenhaus.de/fhir/NamingSystem/observationId",
        "value": "7e9029c70f458ee39aa0f0bd9689f11009241fbcc33d44a527dede2fa6e38bff",
        "assigner": {
          "reference": "Organization/3a4f3433bce81181bad2d8e0b8fafccf7dc800bc06f29be73dcb38b750a48f9a"
        }
      } ],
      "status": "final",
      "category": [ {
        "coding": [ {
          "system": "http://terminology.hl7.org/CodeSystem/observation-category",
          "code": "laboratory",
          "display": "Laboratory"
        }, {
          "system": "http://loinc.org",
          "code": "26436-6"
        } ]
      } ],
      "code": {
        "coding": [ {
          "system": "http://loinc.org",
          "code": "3174-0",
          "display": "antithrombin-in-platelet-poor-plasma-by-chromogenic-method"
        } ],
        "text": "antithrombin_iii"
      },
      "subject": {
        "reference": "Patient/d257b1da81b09f2cd05310abe5f920df6a9202de1cc371159676d11b1ff5696f"
      },
      "encounter": {
        "reference": "Encounter/c29c6edd49167c69995b139fa51a4a3c149516808d5bf146ab5291ad4a8b7ae8"
      },
      "effectiveDateTime": "2020-12-25T18:37:00+00:00",
      "valueQuantity": {
        "value": 44.97105019673746,
        "unit": "[IU]/mL",
        "system": "http://unitsofmeasure.org",
        "code": "[IU]/mL"
      }
    },
    "request": {
      "method": "POST",
      "url": "Observation",
      "ifNoneExist": "identifier=https://mein.krankenhaus.de/fhir/NamingSystem/observationId|2c361668db82a68e70d14a7cddce11e01862450ed627ded3f22b2e1ef730ee43"
    }
  }, {
    "fullUrl": "Observation/f061686bd1f8bb7ccf849a8cbc6a3d1b8765cc543b69dcab2293536facd3ec94",
    "resource": {
      "resourceType": "Observation",
      "meta": {
        "profile": [ "https://www.medizininformatik-initiative.de/fhir/core/modul-labor/StructureDefinition/ObservationLab" ]
      },
      "identifier": [ {
        "type": {
          "coding": [ {
            "system": "http://terminology.hl7.org/CodeSystem/v2-0203",
            "code": "OBI",
            "display": "Observation Instance Identifier"
          } ]
        },
        "system": "https://mein.krankenhaus.de/fhir/NamingSystem/observationId",
        "value": "276dc5f1b56cc64dff5c448f24baf87f9d5fde5528dc0d07b51b3b77c5699ce7",
        "assigner": {
          "reference": "Organization/3a4f3433bce81181bad2d8e0b8fafccf7dc800bc06f29be73dcb38b750a48f9a"
        }
      } ],
      "status": "final",
      "category": [ {
        "coding": [ {
          "system": "http://terminology.hl7.org/CodeSystem/observation-category",
          "code": "laboratory",
          "display": "Laboratory"
        }, {
          "system": "http://loinc.org",
          "code": "26436-6"
        } ]
      } ],
      "code": {
        "coding": [ {
          "system": "http://loinc.org",
          "code": "49919-4",
          "display": "interleukin-6-in-cerebral-spinal-fluid"
        } ],
        "text": "il6_interleukin_6"
      },
      "subject": {
        "reference": "Patient/d257b1da81b09f2cd05310abe5f920df6a9202de1cc371159676d11b1ff5696f"
      },
      "encounter": {
        "reference": "Encounter/c29c6edd49167c69995b139fa51a4a3c149516808d5bf146ab5291ad4a8b7ae8"
      },
      "effectiveDateTime": "2020-12-25T18:37:00+00:00",
      "valueQuantity": {
        "value": 87.15060208768423,
        "unit": "pg/mL",
        "system": "http://unitsofmeasure.org",
        "code": "pg/mL"
      }
    },
    "request": {
      "method": "POST",
      "url": "Observation",
      "ifNoneExist": "identifier=https://mein.krankenhaus.de/fhir/NamingSystem/observationId|f061686bd1f8bb7ccf849a8cbc6a3d1b8765cc543b69dcab2293536facd3ec94"
    }
  }, {
    "fullUrl": "Observation/7d04a6c78503d8c66e751af311161f265306e58a423c36ba4552bb63a70ec7b9",
    "resource": {
      "resourceType": "Observation",
      "meta": {
        "profile": [ "https://www.medizininformatik-initiative.de/fhir/core/modul-labor/StructureDefinition/ObservationLab" ]
      },
      "identifier": [ {
        "type": {
          "coding": [ {
            "system": "http://terminology.hl7.org/CodeSystem/v2-0203",
            "code": "OBI",
            "display": "Observation Instance Identifier"
          } ]
        },
        "system": "https://mein.krankenhaus.de/fhir/NamingSystem/observationId",
        "value": "4dd08d10002c886c0f0a25b06ccd52b584fc20b232baa6e290ecb8a1e45f4d4c",
        "assigner": {
          "reference": "Organization/3a4f3433bce81181bad2d8e0b8fafccf7dc800bc06f29be73dcb38b750a48f9a"
        }
      } ],
      "status": "final",
      "category": [ {
        "coding": [ {
          "system": "http://terminology.hl7.org/CodeSystem/observation-category",
          "code": "laboratory",
          "display": "Laboratory"
        }, {
          "system": "http://loinc.org",
          "code": "26436-6"
        } ]
      } ],
      "code": {
        "coding": [ {
          "system": "http://loinc.org",
          "code": "33762-6",
          "display": "natriuretic-peptide.b-prohormone-n-terminal-in-serum-or-plasma"
        } ],
        "text": "ntprobnp"
      },
      "subject": {
        "reference": "Patient/d257b1da81b09f2cd05310abe5f920df6a9202de1cc371159676d11b1ff5696f"
      },
      "encounter": {
        "reference": "Encounter/c29c6edd49167c69995b139fa51a4a3c149516808d5bf146ab5291ad4a8b7ae8"
      },
      "effectiveDateTime": "2020-12-25T18:37:00+00:00",
      "valueQuantity": {
        "value": 98.13628835127025,
        "unit": "pg/mL",
        "system": "http://unitsofmeasure.org",
        "code": "pg/mL"
      }
    },
    "request": {
      "method": "POST",
      "url": "Observation",
      "ifNoneExist": "identifier=https://mein.krankenhaus.de/fhir/NamingSystem/observationId|7d04a6c78503d8c66e751af311161f265306e58a423c36ba4552bb63a70ec7b9"
    }
  }, {
    "fullUrl": "Observation/f2c68ce94a0f88e66f96dff1c992109bb252522b576cd5a94b004d7505af7209",
    "resource": {
      "resourceType": "Observation",
      "meta": {
        "profile": [ "https://www.medizininformatik-initiative.de/fhir/core/modul-labor/StructureDefinition/ObservationLab" ]
      },
      "identifier": [ {
        "type": {
          "coding": [ {
            "system": "http://terminology.hl7.org/CodeSystem/v2-0203",
            "code": "OBI",
            "display": "Observation Instance Identifier"
          } ]
        },
        "system": "https://mein.krankenhaus.de/fhir/NamingSystem/observationId",
        "value": "8c83eb623b6fc5c172c7294361ea9eec4e479a0de003d6b00d82324bb1cd71cc",
        "assigner": {
          "reference": "Organization/3a4f3433bce81181bad2d8e0b8fafccf7dc800bc06f29be73dcb38b750a48f9a"
        }
      } ],
      "status": "final",
      "category": [ {
        "coding": [ {
          "system": "http://terminology.hl7.org/CodeSystem/observation-category",
          "code": "laboratory",
          "display": "Laboratory"
        }, {
          "system": "http://loinc.org",
          "code": "26436-6"
        } ]
      } ],
      "code": {
        "coding": [ {
          "system": "http://loinc.org",
          "code": "30902-1",
          "display": "fibrinogen-in-platelet-poor-plasma-by-heat-denaturation"
        } ],
        "text": "fibrinogen"
      },
      "subject": {
        "reference": "Patient/d257b1da81b09f2cd05310abe5f920df6a9202de1cc371159676d11b1ff5696f"
      },
      "encounter": {
        "reference": "Encounter/c29c6edd49167c69995b139fa51a4a3c149516808d5bf146ab5291ad4a8b7ae8"
      },
      "effectiveDateTime": "2020-12-25T18:37:00+00:00",
      "valueQuantity": {
        "value": 45.22088045233015,
        "unit": "g/L",
        "system": "http://unitsofmeasure.org",
        "code": "g/L"
      }
    },
    "request": {
      "method": "POST",
      "url": "Observation",
      "ifNoneExist": "identifier=https://mein.krankenhaus.de/fhir/NamingSystem/observationId|f2c68ce94a0f88e66f96dff1c992109bb252522b576cd5a94b004d7505af7209"
    }
  }, {
    "fullUrl": "Observation/93654c76e73a7e6226284f941e35b2ff28f249cae79e72e44568c1bd27bbe9d3",
    "resource": {
      "resourceType": "Observation",
      "meta": {
        "profile": [ "https://www.netzwerk-universitaetsmedizin.de/fhir/StructureDefinition/sars-cov-2-rt-pcr" ]
      },
      "identifier": [ {
        "type": {
          "coding": [ {
            "system": "http://terminology.hl7.org/CodeSystem/v2-0203",
            "code": "OBI",
            "display": "Observation Instance Identifier"
          } ]
        },
        "system": "https://mein.krankenhaus.de/fhir/NamingSystem/observationId",
        "value": "b7f507171e0d45970eeae95bb31a19f386dfec09775c8f6a51c79b05e98a16e3",
        "assigner": {
          "reference": "Organization/3a4f3433bce81181bad2d8e0b8fafccf7dc800bc06f29be73dcb38b750a48f9a"
        }
      } ],
      "status": "final",
      "category": [ {
        "coding": [ {
          "system": "http://terminology.hl7.org/CodeSystem/observation-category",
          "code": "laboratory",
          "display": "Laboratory"
        }, {
          "system": "http://loinc.org",
          "code": "26436-6"
        } ]
      } ],
      "code": {
        "coding": [ {
          "system": "http://loinc.org",
          "code": "94500-6",
          "display": "sars-cov-2-covid-19-rna-in-respiratory-specimen-by-naa-with-probe-detection"
        } ],
        "text": "SARS-CoV-2-RNA (PCR)"
      },
      "subject": {
        "reference": "Patient/d257b1da81b09f2cd05310abe5f920df6a9202de1cc371159676d11b1ff5696f"
      },
      "encounter": {
        "reference": "Encounter/c29c6edd49167c69995b139fa51a4a3c149516808d5bf146ab5291ad4a8b7ae8"
      },
      "effectiveDateTime": "2020-12-25T18:37:00+00:00",
      "valueCodeableConcept": {
        "coding": [ {
          "system": "http://snomed.info/sct",
          "code": "260373001",
          "display": "Detected (qualifier value)"
        } ],
        "text": "SARS-CoV-2-RNA positiv"
      }
    },
    "request": {
      "method": "POST",
      "url": "Observation",
      "ifNoneExist": "identifier=https://mein.krankenhaus.de/fhir/NamingSystem/observationId|93654c76e73a7e6226284f941e35b2ff28f249cae79e72e44568c1bd27bbe9d3"
    }
  }, {
    "fullUrl": "Observation/ece4af45cf01f6a849e35d4585dd389e734db91362915bf62dffecabb7349e58",
    "resource": {
      "resourceType": "Observation",
      "meta": {
        "profile": [ "https://www.netzwerk-universitaetsmedizin.de/fhir/StructureDefinition/sars-cov-2-ab-pnl-ser-pl-ia" ]
      },
      "identifier": [ {
        "type": {
          "coding": [ {
            "system": "http://terminology.hl7.org/CodeSystem/v2-0203",
            "code": "OBI",
            "display": "Observation Instance Identifier"
          } ]
        },
        "system": "https://mein.krankenhaus.de/fhir/NamingSystem/observationId",
        "value": "b47b9ba768f544b4e6678981717fce9e700c93b363d9a7f65efca103ba546e21",
        "assigner": {
          "reference": "Organization/3a4f3433bce81181bad2d8e0b8fafccf7dc800bc06f29be73dcb38b750a48f9a"
        }
      } ],
      "status": "final",
      "category": [ {
        "coding": [ {
          "system": "http://terminology.hl7.org/CodeSystem/observation-category",
          "code": "laboratory",
          "display": "Laboratory"
        }, {
          "system": "http://loinc.org",
          "code": "26436-6"
        } ]
      } ],
      "code": {
        "coding": [ {
          "system": "http://loinc.org",
          "code": "94504-8"
        } ],
        "text": "sarsco_v2_covid19_ab_pnl"
      },
      "subject": {
        "reference": "Patient/d257b1da81b09f2cd05310abe5f920df6a9202de1cc371159676d11b1ff5696f"
      },
      "encounter": {
        "reference": "Encounter/c29c6edd49167c69995b139fa51a4a3c149516808d5bf146ab5291ad4a8b7ae8"
      },
      "effectiveDateTime": "2020-12-25T18:37:00+00:00",
      "hasMember": [ {
        "reference": "Observation/8edcef4798d40e1871a1ec5a35e89844a44036c40d9f14fbb554c8c17ab54cb4"
      }, {
        "reference": "Observation/3f235f9d20905ec86a4c3ed5eeaca6054be2072c92fd8e4112cf4eb0ff411d35"
      }, {
        "reference": "Observation/d6f4bcc2b004a378882d0bfa164dff401df16742b9b81e0cfb20b45bbde072de"
      }, {
        "reference": "Observation/f74050071f0386e3744bddbfc0e03af4c3e0b2be914f8f9722663da2647206b5"
      }, {
        "reference": "Observation/70b1c0d3ea74e0156e7ab36f7b5e3ef9e8e384660f1a22961d3d02108c0787e0"
      }, {
        "reference": "Observation/d355cb89b561cf6038149d44966832f3fda3e025ffeec63ad23c162a21d5ebf1"
      }, {
        "reference": "Observation/7c2acf4bfee3fb31299b9344031f89e1e60d27f5170e8f1097696adfab2424fd"
      } ]
    },
    "request": {
      "method": "POST",
      "url": "Observation",
      "ifNoneExist": "identifier=https://mein.krankenhaus.de/fhir/NamingSystem/observationId|ece4af45cf01f6a849e35d4585dd389e734db91362915bf62dffecabb7349e58"
    }
  }, {
    "fullUrl": "Observation/8edcef4798d40e1871a1ec5a35e89844a44036c40d9f14fbb554c8c17ab54cb4",
    "resource": {
      "resourceType": "Observation",
      "meta": {
        "profile": [ "https://www.netzwerk-universitaetsmedizin.de/fhir/StructureDefinition/sars-cov-2-ab-ser-pl-ql-ia" ]
      },
      "identifier": [ {
        "type": {
          "coding": [ {
            "system": "http://terminology.hl7.org/CodeSystem/v2-0203",
            "code": "OBI",
            "display": "Observation Instance Identifier"
          } ]
        },
        "system": "https://mein.krankenhaus.de/fhir/NamingSystem/observationId",
        "value": "5ded1da9a9a7e596159bcd4cf8960d362c685986237501ac1cc61f11b66eec39",
        "assigner": {
          "reference": "Organization/3a4f3433bce81181bad2d8e0b8fafccf7dc800bc06f29be73dcb38b750a48f9a"
        }
      } ],
      "status": "final",
      "category": [ {
        "coding": [ {
          "system": "http://terminology.hl7.org/CodeSystem/observation-category",
          "code": "laboratory",
          "display": "Laboratory"
        }, {
          "system": "http://loinc.org",
          "code": "26436-6"
        } ]
      } ],
      "code": {
        "coding": [ {
          "system": "http://loinc.org",
          "code": "94762-2",
          "display": "sars-cov-2-covid-19-ab-in-serum-or-plasma-by-immunoassay"
        } ],
        "text": "sarsco_v2_covid19_ab_ia_ql"
      },
      "subject": {
        "reference": "Patient/d257b1da81b09f2cd05310abe5f920df6a9202de1cc371159676d11b1ff5696f"
      },
      "encounter": {
        "reference": "Encounter/c29c6edd49167c69995b139fa51a4a3c149516808d5bf146ab5291ad4a8b7ae8"
      },
      "effectiveDateTime": "2020-12-25T18:37:00+00:00",
      "valueCodeableConcept": {
        "coding": [ {
          "system": "http://snomed.info/sct",
          "code": "260373001"
        } ]
      }
    },
    "request": {
      "method": "POST",
      "url": "Observation",
      "ifNoneExist": "identifier=https://mein.krankenhaus.de/fhir/NamingSystem/observationId|8edcef4798d40e1871a1ec5a35e89844a44036c40d9f14fbb554c8c17ab54cb4"
    }
  }, {
    "fullUrl": "Observation/3f235f9d20905ec86a4c3ed5eeaca6054be2072c92fd8e4112cf4eb0ff411d35",
    "resource": {
      "resourceType": "Observation",
      "meta": {
        "profile": [ "https://www.netzwerk-universitaetsmedizin.de/fhir/StructureDefinition/sars-cov-2-ab-ser-pl-ia-acnc" ]
      },
      "identifier": [ {
        "type": {
          "coding": [ {
            "system": "http://terminology.hl7.org/CodeSystem/v2-0203",
            "code": "OBI",
            "display": "Observation Instance Identifier"
          } ]
        },
        "system": "https://mein.krankenhaus.de/fhir/NamingSystem/observationId",
        "value": "f84eb0494df4267fc15a24395f484f8d76b53b74f629333ca44b596f8d0b8e8a",
        "assigner": {
          "reference": "Organization/3a4f3433bce81181bad2d8e0b8fafccf7dc800bc06f29be73dcb38b750a48f9a"
        }
      } ],
      "status": "final",
      "category": [ {
        "coding": [ {
          "system": "http://terminology.hl7.org/CodeSystem/observation-category",
          "code": "laboratory",
          "display": "Laboratory"
        }, {
          "system": "http://loinc.org",
          "code": "26436-6"
        } ]
      } ],
      "code": {
        "coding": [ {
          "system": "http://loinc.org",
          "code": "94769-7",
          "display": "sars-cov-2-covid-19-ab-in-serum-or-plasma-by-immunoassay"
        } ],
        "text": "sarsco_v2_covid19_ab_ia_qn"
      },
      "subject": {
        "reference": "Patient/d257b1da81b09f2cd05310abe5f920df6a9202de1cc371159676d11b1ff5696f"
      },
      "encounter": {
        "reference": "Encounter/c29c6edd49167c69995b139fa51a4a3c149516808d5bf146ab5291ad4a8b7ae8"
      },
      "effectiveDateTime": "2020-12-25T18:37:00+00:00",
      "valueQuantity": {
        "value": 91.58674776348307,
        "unit": "[IU]/mL",
        "system": "http://unitsofmeasure.org",
        "code": "[IU]/mL"
      }
    },
    "request": {
      "method": "POST",
      "url": "Observation",
      "ifNoneExist": "identifier=https://mein.krankenhaus.de/fhir/NamingSystem/observationId|3f235f9d20905ec86a4c3ed5eeaca6054be2072c92fd8e4112cf4eb0ff411d35"
    }
  }, {
    "fullUrl": "Observation/d6f4bcc2b004a378882d0bfa164dff401df16742b9b81e0cfb20b45bbde072de",
    "resource": {
      "resourceType": "Observation",
      "meta": {
        "profile": [ "https://www.netzwerk-universitaetsmedizin.de/fhir/StructureDefinition/sars-cov-2-iga-ser-pl-ia-acnc" ]
      },
      "identifier": [ {
        "type": {
          "coding": [ {
            "system": "http://terminology.hl7.org/CodeSystem/v2-0203",
            "code": "OBI",
            "display": "Observation Instance Identifier"
          } ]
        },
        "system": "https://mein.krankenhaus.de/fhir/NamingSystem/observationId",
        "value": "ba78ea128d8d4d9edef9c39a2be7ef5888ccf58e4eee7a4fd3e676289fe60403",
        "assigner": {
          "reference": "Organization/3a4f3433bce81181bad2d8e0b8fafccf7dc800bc06f29be73dcb38b750a48f9a"
        }
      } ],
      "status": "final",
      "category": [ {
        "coding": [ {
          "system": "http://terminology.hl7.org/CodeSystem/observation-category",
          "code": "laboratory",
          "display": "Laboratory"
        }, {
          "system": "http://loinc.org",
          "code": "26436-6"
        } ]
      } ],
      "code": {
        "coding": [ {
          "system": "http://loinc.org",
          "code": "94720-0",
          "display": "sars-cov-2-covid-19-iga-ab-in-serum-or-plasma-by-immunoassay"
        } ],
        "text": "sarsco_v2_covid19_ig_a_ia_qn"
      },
      "subject": {
        "reference": "Patient/d257b1da81b09f2cd05310abe5f920df6a9202de1cc371159676d11b1ff5696f"
      },
      "encounter": {
        "reference": "Encounter/c29c6edd49167c69995b139fa51a4a3c149516808d5bf146ab5291ad4a8b7ae8"
      },
      "effectiveDateTime": "2020-12-25T18:37:00+00:00",
      "valueQuantity": {
        "value": 50.82582191849065,
        "unit": "[IU]/mL",
        "system": "http://unitsofmeasure.org",
        "code": "[IU]/mL"
      }
    },
    "request": {
      "method": "POST",
      "url": "Observation",
      "ifNoneExist": "identifier=https://mein.krankenhaus.de/fhir/NamingSystem/observationId|d6f4bcc2b004a378882d0bfa164dff401df16742b9b81e0cfb20b45bbde072de"
    }
  }, {
    "fullUrl": "Observation/f74050071f0386e3744bddbfc0e03af4c3e0b2be914f8f9722663da2647206b5",
    "resource": {
      "resourceType": "Observation",
      "meta": {
        "profile": [ "https://www.netzwerk-universitaetsmedizin.de/fhir/StructureDefinition/sars-cov-2-igg-ser-pl-ql-ia" ]
      },
      "identifier": [ {
        "type": {
          "coding": [ {
            "system": "http://terminology.hl7.org/CodeSystem/v2-0203",
            "code": "OBI",
            "display": "Observation Instance Identifier"
          } ]
        },
        "system": "https://mein.krankenhaus.de/fhir/NamingSystem/observationId",
        "value": "f6e4f563c358eb71d14f8c092dd8393630a20737c7680a15ad28acc85318224a",
        "assigner": {
          "reference": "Organization/3a4f3433bce81181bad2d8e0b8fafccf7dc800bc06f29be73dcb38b750a48f9a"
        }
      } ],
      "status": "final",
      "category": [ {
        "coding": [ {
          "system": "http://terminology.hl7.org/CodeSystem/observation-category",
          "code": "laboratory",
          "display": "Laboratory"
        }, {
          "system": "http://loinc.org",
          "code": "26436-6"
        } ]
      } ],
      "code": {
        "coding": [ {
          "system": "http://loinc.org",
          "code": "94563-4",
          "display": "sars-cov-2-covid-19-igg-ab-in-serum-or-plasma-by-immunoassay"
        } ],
        "text": "sarsco_v2_covid19_ig_g_ia_ql"
      },
      "subject": {
        "reference": "Patient/d257b1da81b09f2cd05310abe5f920df6a9202de1cc371159676d11b1ff5696f"
      },
      "encounter": {
        "reference": "Encounter/c29c6edd49167c69995b139fa51a4a3c149516808d5bf146ab5291ad4a8b7ae8"
      },
      "effectiveDateTime": "2020-12-25T18:37:00+00:00",
      "valueCodeableConcept": {
        "coding": [ {
          "system": "http://snomed.info/sct",
          "code": "260373001"
        } ]
      }
    },
    "request": {
      "method": "POST",
      "url": "Observation",
      "ifNoneExist": "identifier=https://mein.krankenhaus.de/fhir/NamingSystem/observationId|f74050071f0386e3744bddbfc0e03af4c3e0b2be914f8f9722663da2647206b5"
    }
  }, {
    "fullUrl": "Observation/70b1c0d3ea74e0156e7ab36f7b5e3ef9e8e384660f1a22961d3d02108c0787e0",
    "resource": {
      "resourceType": "Observation",
      "meta": {
        "profile": [ "https://www.netzwerk-universitaetsmedizin.de/fhir/StructureDefinition/sars-cov-2-igg-ser-pl-ia-acnc" ]
      },
      "identifier": [ {
        "type": {
          "coding": [ {
            "system": "http://terminology.hl7.org/CodeSystem/v2-0203",
            "code": "OBI",
            "display": "Observation Instance Identifier"
          } ]
        },
        "system": "https://mein.krankenhaus.de/fhir/NamingSystem/observationId",
        "value": "6508e1f9ed4fb5b5540e1febadd6fdfc364926c0df8138a8d76d18b5c6b1130a",
        "assigner": {
          "reference": "Organization/3a4f3433bce81181bad2d8e0b8fafccf7dc800bc06f29be73dcb38b750a48f9a"
        }
      } ],
      "status": "final",
      "category": [ {
        "coding": [ {
          "system": "http://terminology.hl7.org/CodeSystem/observation-category",
          "code": "laboratory",
          "display": "Laboratory"
        }, {
          "system": "http://loinc.org",
          "code": "26436-6"
        } ]
      } ],
      "code": {
        "coding": [ {
          "system": "http://loinc.org",
          "code": "94505-5",
          "display": "sars-cov-2-covid-19-igg-ab-in-serum-or-plasma-by-immunoassay"
        } ],
        "text": "sarsco_v2_covid19_ig_g_ia_qn"
      },
      "subject": {
        "reference": "Patient/d257b1da81b09f2cd05310abe5f920df6a9202de1cc371159676d11b1ff5696f"
      },
      "encounter": {
        "reference": "Encounter/c29c6edd49167c69995b139fa51a4a3c149516808d5bf146ab5291ad4a8b7ae8"
      },
      "effectiveDateTime": "2020-12-25T18:37:00+00:00",
      "valueQuantity": {
        "value": 67.1849717573113,
        "unit": "[arb'U]/mL",
        "system": "http://unitsofmeasure.org",
        "code": "[arb'U]/mL"
      }
    },
    "request": {
      "method": "POST",
      "url": "Observation",
      "ifNoneExist": "identifier=https://mein.krankenhaus.de/fhir/NamingSystem/observationId|70b1c0d3ea74e0156e7ab36f7b5e3ef9e8e384660f1a22961d3d02108c0787e0"
    }
  }, {
    "fullUrl": "Observation/d355cb89b561cf6038149d44966832f3fda3e025ffeec63ad23c162a21d5ebf1",
    "resource": {
      "resourceType": "Observation",
      "meta": {
        "profile": [ "https://www.netzwerk-universitaetsmedizin.de/fhir/StructureDefinition/sars-cov-2-igm-ser-pl-ql-ia" ]
      },
      "identifier": [ {
        "type": {
          "coding": [ {
            "system": "http://terminology.hl7.org/CodeSystem/v2-0203",
            "code": "OBI",
            "display": "Observation Instance Identifier"
          } ]
        },
        "system": "https://mein.krankenhaus.de/fhir/NamingSystem/observationId",
        "value": "184c8f1a74bd22c522fe2c1a9e3b8d15fb09748a1c2f791161e0f8a6b947003a",
        "assigner": {
          "reference": "Organization/3a4f3433bce81181bad2d8e0b8fafccf7dc800bc06f29be73dcb38b750a48f9a"
        }
      } ],
      "status": "final",
      "category": [ {
        "coding": [ {
          "system": "http://terminology.hl7.org/CodeSystem/observation-category",
          "code": "laboratory",
          "display": "Laboratory"
        }, {
          "system": "http://loinc.org",
          "code": "26436-6"
        } ]
      } ],
      "code": {
        "coding": [ {
          "system": "http://loinc.org",
          "code": "94564-2",
          "display": "sars-cov-2-covid-19-igm-ab-in-serum-or-plasma-by-immunoassay"
        } ],
        "text": "sarsco_v2_covid19_ig_m_ia_ql"
      },
      "subject": {
        "reference": "Patient/d257b1da81b09f2cd05310abe5f920df6a9202de1cc371159676d11b1ff5696f"
      },
      "encounter": {
        "reference": "Encounter/c29c6edd49167c69995b139fa51a4a3c149516808d5bf146ab5291ad4a8b7ae8"
      },
      "effectiveDateTime": "2020-12-25T18:37:00+00:00",
      "valueCodeableConcept": {
        "coding": [ {
          "system": "http://snomed.info/sct",
          "code": "260373001"
        } ]
      }
    },
    "request": {
      "method": "POST",
      "url": "Observation",
      "ifNoneExist": "identifier=https://mein.krankenhaus.de/fhir/NamingSystem/observationId|d355cb89b561cf6038149d44966832f3fda3e025ffeec63ad23c162a21d5ebf1"
    }
  }, {
    "fullUrl": "Observation/7c2acf4bfee3fb31299b9344031f89e1e60d27f5170e8f1097696adfab2424fd",
    "resource": {
      "resourceType": "Observation",
      "meta": {
        "profile": [ "https://www.netzwerk-universitaetsmedizin.de/fhir/StructureDefinition/sars-cov-2-igm-ser-pl-ia-acnc" ]
      },
      "identifier": [ {
        "type": {
          "coding": [ {
            "system": "http://terminology.hl7.org/CodeSystem/v2-0203",
            "code": "OBI",
            "display": "Observation Instance Identifier"
          } ]
        },
        "system": "https://mein.krankenhaus.de/fhir/NamingSystem/observationId",
        "value": "447c484148d50f2d74699b2c24dc8259b8fe67f78df44f8b3e1a8c15d21ecd0f",
        "assigner": {
          "reference": "Organization/3a4f3433bce81181bad2d8e0b8fafccf7dc800bc06f29be73dcb38b750a48f9a"
        }
      } ],
      "status": "final",
      "category": [ {
        "coding": [ {
          "system": "http://terminology.hl7.org/CodeSystem/observation-category",
          "code": "laboratory",
          "display": "Laboratory"
        }, {
          "system": "http://loinc.org",
          "code": "26436-6"
        } ]
      } ],
      "code": {
        "coding": [ {
          "system": "http://loinc.org",
          "code": "94506-3",
          "display": "sars-cov-2-covid-19-igm-ab-in-serum-or-plasma-by-immunoassay"
        } ],
        "text": "sarsco_v2_covid19_ig_m_ia_qn"
      },
      "subject": {
        "reference": "Patient/d257b1da81b09f2cd05310abe5f920df6a9202de1cc371159676d11b1ff5696f"
      },
      "encounter": {
        "reference": "Encounter/c29c6edd49167c69995b139fa51a4a3c149516808d5bf146ab5291ad4a8b7ae8"
      },
      "effectiveDateTime": "2020-12-25T18:37:00+00:00",
      "valueQuantity": {
        "value": 94.94567521776644,
        "unit": "[arb'U]/mL",
        "system": "http://unitsofmeasure.org",
        "code": "[arb'U]/mL"
      }
    },
    "request": {
      "method": "POST",
      "url": "Observation",
      "ifNoneExist": "identifier=https://mein.krankenhaus.de/fhir/NamingSystem/observationId|7c2acf4bfee3fb31299b9344031f89e1e60d27f5170e8f1097696adfab2424fd"
    }
  }, {
    "fullUrl": "Observation/11085676230ff4321d2f4d3e1e8960db8d8faf14e1ff30ee7df998523890ca63",
    "resource": {
      "resourceType": "Observation",
      "meta": {
        "profile": [ "https://www.medizininformatik-initiative.de/fhir/core/modul-labor/StructureDefinition/ObservationLab" ]
      },
      "identifier": [ {
        "type": {
          "coding": [ {
            "system": "http://terminology.hl7.org/CodeSystem/v2-0203",
            "code": "OBI",
            "display": "Observation Instance Identifier"
          } ]
        },
        "system": "https://mein.krankenhaus.de/fhir/NamingSystem/observationId",
        "value": "af8c2672f8f917098cdc89eb97636e714b60cc68000e82a41dea3206cc20e33f",
        "assigner": {
          "reference": "Organization/3a4f3433bce81181bad2d8e0b8fafccf7dc800bc06f29be73dcb38b750a48f9a"
        }
      } ],
      "status": "final",
      "category": [ {
        "coding": [ {
          "system": "http://terminology.hl7.org/CodeSystem/observation-category",
          "code": "laboratory",
          "display": "Laboratory"
        }, {
          "system": "http://loinc.org",
          "code": "26436-6"
        } ]
      } ],
      "code": {
        "coding": [ {
          "system": "http://loinc.org",
          "code": "48421-2",
          "display": "c-reactive-protein-in-capillary-blood"
        } ],
        "text": "crp"
      },
      "subject": {
        "reference": "Patient/d257b1da81b09f2cd05310abe5f920df6a9202de1cc371159676d11b1ff5696f"
      },
      "encounter": {
        "reference": "Encounter/c29c6edd49167c69995b139fa51a4a3c149516808d5bf146ab5291ad4a8b7ae8"
      },
      "effectiveDateTime": "2020-09-05T21:25:00+00:00",
      "valueQuantity": {
        "value": 50.69362883139464,
        "unit": "mg/L",
        "system": "http://unitsofmeasure.org",
        "code": "mg/L"
      }
    },
    "request": {
      "method": "POST",
      "url": "Observation",
      "ifNoneExist": "identifier=https://mein.krankenhaus.de/fhir/NamingSystem/observationId|11085676230ff4321d2f4d3e1e8960db8d8faf14e1ff30ee7df998523890ca63"
    }
  }, {
    "fullUrl": "Observation/a6b09e93c592c1873a0995f5108d24af8d77f92a15614a464267285c9b1e12cd",
    "resource": {
      "resourceType": "Observation",
      "meta": {
        "profile": [ "https://www.medizininformatik-initiative.de/fhir/core/modul-labor/StructureDefinition/ObservationLab" ]
      },
      "identifier": [ {
        "type": {
          "coding": [ {
            "system": "http://terminology.hl7.org/CodeSystem/v2-0203",
            "code": "OBI",
            "display": "Observation Instance Identifier"
          } ]
        },
        "system": "https://mein.krankenhaus.de/fhir/NamingSystem/observationId",
        "value": "5892c75e728817c4a113ecb290f5b9603ea93f236116621d289b5110dadaf6a5",
        "assigner": {
          "reference": "Organization/3a4f3433bce81181bad2d8e0b8fafccf7dc800bc06f29be73dcb38b750a48f9a"
        }
      } ],
      "status": "final",
      "category": [ {
        "coding": [ {
          "system": "http://terminology.hl7.org/CodeSystem/observation-category",
          "code": "laboratory",
          "display": "Laboratory"
        }, {
          "system": "http://loinc.org",
          "code": "26436-6"
        } ]
      } ],
      "code": {
        "coding": [ {
          "system": "http://loinc.org",
          "code": "59828-4",
          "display": "bilirubin.total-in-venous-blood"
        } ],
        "text": "bilirubin"
      },
      "subject": {
        "reference": "Patient/d257b1da81b09f2cd05310abe5f920df6a9202de1cc371159676d11b1ff5696f"
      },
      "encounter": {
        "reference": "Encounter/c29c6edd49167c69995b139fa51a4a3c149516808d5bf146ab5291ad4a8b7ae8"
      },
      "effectiveDateTime": "2020-09-05T21:25:00+00:00",
      "valueQuantity": {
        "value": 61.42107833925549,
        "unit": "mg/dL",
        "system": "http://unitsofmeasure.org",
        "code": "mg/dL"
      }
    },
    "request": {
      "method": "POST",
      "url": "Observation",
      "ifNoneExist": "identifier=https://mein.krankenhaus.de/fhir/NamingSystem/observationId|a6b09e93c592c1873a0995f5108d24af8d77f92a15614a464267285c9b1e12cd"
    }
  }, {
    "fullUrl": "Observation/112361b06ba4525caef8ef744eec535aa83c270c2627d9d5a531788fba6e73a3",
    "resource": {
      "resourceType": "Observation",
      "meta": {
        "profile": [ "https://www.medizininformatik-initiative.de/fhir/core/modul-labor/StructureDefinition/ObservationLab" ]
      },
      "identifier": [ {
        "type": {
          "coding": [ {
            "system": "http://terminology.hl7.org/CodeSystem/v2-0203",
            "code": "OBI",
            "display": "Observation Instance Identifier"
          } ]
        },
        "system": "https://mein.krankenhaus.de/fhir/NamingSystem/observationId",
        "value": "9b1b522aa2e8de6146a49bed63ebb4335a2936c46006837fc5ad30f76f552f0f",
        "assigner": {
          "reference": "Organization/3a4f3433bce81181bad2d8e0b8fafccf7dc800bc06f29be73dcb38b750a48f9a"
        }
      } ],
      "status": "final",
      "category": [ {
        "coding": [ {
          "system": "http://terminology.hl7.org/CodeSystem/observation-category",
          "code": "laboratory",
          "display": "Laboratory"
        }, {
          "system": "http://loinc.org",
          "code": "26436-6"
        } ]
      } ],
      "code": {
        "coding": [ {
          "system": "http://loinc.org",
          "code": "48058-2",
          "display": "fibrin-d-dimer-ddu-in-platelet-poor-plasma-by-immunoassay"
        } ],
        "text": "ddimer"
      },
      "subject": {
        "reference": "Patient/d257b1da81b09f2cd05310abe5f920df6a9202de1cc371159676d11b1ff5696f"
      },
      "encounter": {
        "reference": "Encounter/c29c6edd49167c69995b139fa51a4a3c149516808d5bf146ab5291ad4a8b7ae8"
      },
      "effectiveDateTime": "2020-09-05T21:25:00+00:00",
      "valueQuantity": {
        "value": 55.33653373969846,
        "unit": "ug/dL{DDU}",
        "system": "http://unitsofmeasure.org",
        "code": "ug/dL{DDU}"
      }
    },
    "request": {
      "method": "POST",
      "url": "Observation",
      "ifNoneExist": "identifier=https://mein.krankenhaus.de/fhir/NamingSystem/observationId|112361b06ba4525caef8ef744eec535aa83c270c2627d9d5a531788fba6e73a3"
    }
  }, {
    "fullUrl": "Observation/88a4443efc52654accbc9674ff627eb6e93572471938ab9bc326c058ad1107e0",
    "resource": {
      "resourceType": "Observation",
      "meta": {
        "profile": [ "https://www.medizininformatik-initiative.de/fhir/core/modul-labor/StructureDefinition/ObservationLab" ]
      },
      "identifier": [ {
        "type": {
          "coding": [ {
            "system": "http://terminology.hl7.org/CodeSystem/v2-0203",
            "code": "OBI",
            "display": "Observation Instance Identifier"
          } ]
        },
        "system": "https://mein.krankenhaus.de/fhir/NamingSystem/observationId",
        "value": "b47c894a2fad2375786f9f946b2e03ad729e53f63f9f8480fd1b8880d651be25",
        "assigner": {
          "reference": "Organization/3a4f3433bce81181bad2d8e0b8fafccf7dc800bc06f29be73dcb38b750a48f9a"
        }
      } ],
      "status": "final",
      "category": [ {
        "coding": [ {
          "system": "http://terminology.hl7.org/CodeSystem/observation-category",
          "code": "laboratory",
          "display": "Laboratory"
        }, {
          "system": "http://loinc.org",
          "code": "26436-6"
        } ]
      } ],
      "code": {
        "coding": [ {
          "system": "http://loinc.org",
          "code": "2325-9"
        }, {
          "system": "http://loinc.org",
          "code": "2324-2"
        } ],
        "text": "gammagt"
      },
      "subject": {
        "reference": "Patient/d257b1da81b09f2cd05310abe5f920df6a9202de1cc371159676d11b1ff5696f"
      },
      "encounter": {
        "reference": "Encounter/c29c6edd49167c69995b139fa51a4a3c149516808d5bf146ab5291ad4a8b7ae8"
      },
      "effectiveDateTime": "2020-09-05T21:25:00+00:00",
      "valueQuantity": {
        "value": 20.33397415376318,
        "unit": "U/L",
        "system": "http://unitsofmeasure.org",
        "code": "U/L"
      }
    },
    "request": {
      "method": "POST",
      "url": "Observation",
      "ifNoneExist": "identifier=https://mein.krankenhaus.de/fhir/NamingSystem/observationId|88a4443efc52654accbc9674ff627eb6e93572471938ab9bc326c058ad1107e0"
    }
  }, {
    "fullUrl": "Observation/80d5387a5986cfd704900111cdaa3cfe46931318e8800ffda754fa235b08c436",
    "resource": {
      "resourceType": "Observation",
      "meta": {
        "profile": [ "https://www.medizininformatik-initiative.de/fhir/core/modul-labor/StructureDefinition/ObservationLab" ]
      },
      "identifier": [ {
        "type": {
          "coding": [ {
            "system": "http://terminology.hl7.org/CodeSystem/v2-0203",
            "code": "OBI",
            "display": "Observation Instance Identifier"
          } ]
        },
        "system": "https://mein.krankenhaus.de/fhir/NamingSystem/observationId",
        "value": "7a8eb8ef9a7f04fee8c7199d026fb4cf4b95ba0c1383116a7c83cac48d915cac",
        "assigner": {
          "reference": "Organization/3a4f3433bce81181bad2d8e0b8fafccf7dc800bc06f29be73dcb38b750a48f9a"
        }
      } ],
      "status": "final",
      "category": [ {
        "coding": [ {
          "system": "http://terminology.hl7.org/CodeSystem/observation-category",
          "code": "laboratory",
          "display": "Laboratory"
        }, {
          "system": "http://loinc.org",
          "code": "26436-6"
        } ]
      } ],
      "code": {
        "coding": [ {
          "system": "http://loinc.org",
          "code": "1920-8",
          "display": "aspartate-aminotransferase-in-serum-or-plasma"
        } ],
        "text": "gotast"
      },
      "subject": {
        "reference": "Patient/d257b1da81b09f2cd05310abe5f920df6a9202de1cc371159676d11b1ff5696f"
      },
      "encounter": {
        "reference": "Encounter/c29c6edd49167c69995b139fa51a4a3c149516808d5bf146ab5291ad4a8b7ae8"
      },
      "effectiveDateTime": "2020-09-05T21:25:00+00:00",
      "valueQuantity": {
        "value": 84.9915217785855,
        "unit": "U/L",
        "system": "http://unitsofmeasure.org",
        "code": "U/L"
      }
    },
    "request": {
      "method": "POST",
      "url": "Observation",
      "ifNoneExist": "identifier=https://mein.krankenhaus.de/fhir/NamingSystem/observationId|80d5387a5986cfd704900111cdaa3cfe46931318e8800ffda754fa235b08c436"
    }
  }, {
    "fullUrl": "Observation/c31dd7a4b13aa762b714a960292d302830bd317849f658a8e92cd606d72ecbee",
    "resource": {
      "resourceType": "Observation",
      "meta": {
        "profile": [ "https://www.medizininformatik-initiative.de/fhir/core/modul-labor/StructureDefinition/ObservationLab" ]
      },
      "identifier": [ {
        "type": {
          "coding": [ {
            "system": "http://terminology.hl7.org/CodeSystem/v2-0203",
            "code": "OBI",
            "display": "Observation Instance Identifier"
          } ]
        },
        "system": "https://mein.krankenhaus.de/fhir/NamingSystem/observationId",
        "value": "8e97c8d0703164d322be53248d78db1cf695197e096dd745bc03748402b53f1f",
        "assigner": {
          "reference": "Organization/3a4f3433bce81181bad2d8e0b8fafccf7dc800bc06f29be73dcb38b750a48f9a"
        }
      } ],
      "status": "final",
      "category": [ {
        "coding": [ {
          "system": "http://terminology.hl7.org/CodeSystem/observation-category",
          "code": "laboratory",
          "display": "Laboratory"
        }, {
          "system": "http://loinc.org",
          "code": "26436-6"
        } ]
      } ],
      "code": {
        "coding": [ {
          "system": "http://loinc.org",
          "code": "2532-0",
          "display": "lactate-dehydrogenase-in-serum-or-plasma"
        } ],
        "text": "ldh"
      },
      "subject": {
        "reference": "Patient/d257b1da81b09f2cd05310abe5f920df6a9202de1cc371159676d11b1ff5696f"
      },
      "encounter": {
        "reference": "Encounter/c29c6edd49167c69995b139fa51a4a3c149516808d5bf146ab5291ad4a8b7ae8"
      },
      "effectiveDateTime": "2020-09-05T21:25:00+00:00",
      "valueQuantity": {
        "value": 96.25441990170812,
        "unit": "U/L",
        "system": "http://unitsofmeasure.org",
        "code": "U/L"
      }
    },
    "request": {
      "method": "POST",
      "url": "Observation",
      "ifNoneExist": "identifier=https://mein.krankenhaus.de/fhir/NamingSystem/observationId|c31dd7a4b13aa762b714a960292d302830bd317849f658a8e92cd606d72ecbee"
    }
  }, {
    "fullUrl": "Observation/5d4e9da9d42fc5abf2dd0ffcac7819f2181cd1a5a593da75085a34a75100dea3",
    "resource": {
      "resourceType": "Observation",
      "meta": {
        "profile": [ "https://www.medizininformatik-initiative.de/fhir/core/modul-labor/StructureDefinition/ObservationLab" ]
      },
      "identifier": [ {
        "type": {
          "coding": [ {
            "system": "http://terminology.hl7.org/CodeSystem/v2-0203",
            "code": "OBI",
            "display": "Observation Instance Identifier"
          } ]
        },
        "system": "https://mein.krankenhaus.de/fhir/NamingSystem/observationId",
        "value": "a2f3bcd684ea6a2f067f060dbab663c8ed81604dddf28c67cc2104417b60049c",
        "assigner": {
          "reference": "Organization/3a4f3433bce81181bad2d8e0b8fafccf7dc800bc06f29be73dcb38b750a48f9a"
        }
      } ],
      "status": "final",
      "category": [ {
        "coding": [ {
          "system": "http://terminology.hl7.org/CodeSystem/observation-category",
          "code": "laboratory",
          "display": "Laboratory"
        }, {
          "system": "http://loinc.org",
          "code": "26436-6"
        } ]
      } ],
      "code": {
        "coding": [ {
          "system": "http://loinc.org",
          "code": "49563-0",
          "display": "troponin-i.cardiac-in-serum-or-plasma-by-detection-limit-leq-0.01-ng-ml"
        } ],
        "text": "kardiale_troponine"
      },
      "subject": {
        "reference": "Patient/d257b1da81b09f2cd05310abe5f920df6a9202de1cc371159676d11b1ff5696f"
      },
      "encounter": {
        "reference": "Encounter/c29c6edd49167c69995b139fa51a4a3c149516808d5bf146ab5291ad4a8b7ae8"
      },
      "effectiveDateTime": "2020-09-05T21:25:00+00:00",
      "valueQuantity": {
        "value": 18.630651812365105,
        "unit": "ng/L",
        "system": "http://unitsofmeasure.org",
        "code": "ng/L"
      }
    },
    "request": {
      "method": "POST",
      "url": "Observation",
      "ifNoneExist": "identifier=https://mein.krankenhaus.de/fhir/NamingSystem/observationId|5d4e9da9d42fc5abf2dd0ffcac7819f2181cd1a5a593da75085a34a75100dea3"
    }
  }, {
    "fullUrl": "Observation/2c9037b3637c3b4437a61a10b130b4f9e0a3cef8807511933e9aa83400b0e588",
    "resource": {
      "resourceType": "Observation",
      "meta": {
        "profile": [ "https://www.medizininformatik-initiative.de/fhir/core/modul-labor/StructureDefinition/ObservationLab" ]
      },
      "identifier": [ {
        "type": {
          "coding": [ {
            "system": "http://terminology.hl7.org/CodeSystem/v2-0203",
            "code": "OBI",
            "display": "Observation Instance Identifier"
          } ]
        },
        "system": "https://mein.krankenhaus.de/fhir/NamingSystem/observationId",
        "value": "fca63cf1b8de11abe59ee3eba68a5ce2dcf00cedc0d96a53db04ebcf1732c0fc",
        "assigner": {
          "reference": "Organization/3a4f3433bce81181bad2d8e0b8fafccf7dc800bc06f29be73dcb38b750a48f9a"
        }
      } ],
      "status": "final",
      "category": [ {
        "coding": [ {
          "system": "http://terminology.hl7.org/CodeSystem/observation-category",
          "code": "laboratory",
          "display": "Laboratory"
        }, {
          "system": "http://loinc.org",
          "code": "26436-6"
        } ]
      } ],
      "code": {
        "coding": [ {
          "system": "http://loinc.org",
          "code": "14775-1",
          "display": "hemoglobin-in-arterial-blood-by-oximetry"
        } ],
        "text": "hamoglobin"
      },
      "subject": {
        "reference": "Patient/d257b1da81b09f2cd05310abe5f920df6a9202de1cc371159676d11b1ff5696f"
      },
      "encounter": {
        "reference": "Encounter/c29c6edd49167c69995b139fa51a4a3c149516808d5bf146ab5291ad4a8b7ae8"
      },
      "effectiveDateTime": "2020-09-05T21:25:00+00:00",
      "valueQuantity": {
        "value": 7.8432897073788865,
        "unit": "g/dL",
        "system": "http://unitsofmeasure.org",
        "code": "g/dL"
      }
    },
    "request": {
      "method": "POST",
      "url": "Observation",
      "ifNoneExist": "identifier=https://mein.krankenhaus.de/fhir/NamingSystem/observationId|2c9037b3637c3b4437a61a10b130b4f9e0a3cef8807511933e9aa83400b0e588"
    }
  }, {
    "fullUrl": "Observation/c9449273912def7d9df26caa9caac1d434d6def54edfa8a28eba6a050102edca",
    "resource": {
      "resourceType": "Observation",
      "meta": {
        "profile": [ "https://www.medizininformatik-initiative.de/fhir/core/modul-labor/StructureDefinition/ObservationLab" ]
      },
      "identifier": [ {
        "type": {
          "coding": [ {
            "system": "http://terminology.hl7.org/CodeSystem/v2-0203",
            "code": "OBI",
            "display": "Observation Instance Identifier"
          } ]
        },
        "system": "https://mein.krankenhaus.de/fhir/NamingSystem/observationId",
        "value": "f1e12c6e244812388b7db51f7c5739170dc71456414b843130a50a19847107d7",
        "assigner": {
          "reference": "Organization/3a4f3433bce81181bad2d8e0b8fafccf7dc800bc06f29be73dcb38b750a48f9a"
        }
      } ],
      "status": "final",
      "category": [ {
        "coding": [ {
          "system": "http://terminology.hl7.org/CodeSystem/observation-category",
          "code": "laboratory",
          "display": "Laboratory"
        }, {
          "system": "http://loinc.org",
          "code": "26436-6"
        } ]
      } ],
      "code": {
        "coding": [ {
          "system": "http://loinc.org",
          "code": "59826-8",
          "display": "creatinine-in-blood"
        } ],
        "text": "kreatinin"
      },
      "subject": {
        "reference": "Patient/d257b1da81b09f2cd05310abe5f920df6a9202de1cc371159676d11b1ff5696f"
      },
      "encounter": {
        "reference": "Encounter/c29c6edd49167c69995b139fa51a4a3c149516808d5bf146ab5291ad4a8b7ae8"
      },
      "effectiveDateTime": "2020-09-05T21:25:00+00:00",
      "valueQuantity": {
        "value": 84.34295219316195,
        "unit": "umol/L",
        "system": "http://unitsofmeasure.org",
        "code": "umol/L"
      }
    },
    "request": {
      "method": "POST",
      "url": "Observation",
      "ifNoneExist": "identifier=https://mein.krankenhaus.de/fhir/NamingSystem/observationId|c9449273912def7d9df26caa9caac1d434d6def54edfa8a28eba6a050102edca"
    }
  }, {
    "fullUrl": "Observation/09bf19e9dce6acc0a788778a6876acd3168305dca4f20af7a58f66b012a712d9",
    "resource": {
      "resourceType": "Observation",
      "meta": {
        "profile": [ "https://www.medizininformatik-initiative.de/fhir/core/modul-labor/StructureDefinition/ObservationLab" ]
      },
      "identifier": [ {
        "type": {
          "coding": [ {
            "system": "http://terminology.hl7.org/CodeSystem/v2-0203",
            "code": "OBI",
            "display": "Observation Instance Identifier"
          } ]
        },
        "system": "https://mein.krankenhaus.de/fhir/NamingSystem/observationId",
        "value": "eb2390a303dd634faf4a509e9ecc2c3538167071c90e3c1790cb02ce5177c7ca",
        "assigner": {
          "reference": "Organization/3a4f3433bce81181bad2d8e0b8fafccf7dc800bc06f29be73dcb38b750a48f9a"
        }
      } ],
      "status": "final",
      "category": [ {
        "coding": [ {
          "system": "http://terminology.hl7.org/CodeSystem/observation-category",
          "code": "laboratory",
          "display": "Laboratory"
        }, {
          "system": "http://loinc.org",
          "code": "26436-6"
        } ]
      } ],
      "code": {
        "coding": [ {
          "system": "http://loinc.org",
          "code": "27941-4",
          "display": "lactate-in-cerebral-spinal-fluid"
        } ],
        "text": "laktat"
      },
      "subject": {
        "reference": "Patient/d257b1da81b09f2cd05310abe5f920df6a9202de1cc371159676d11b1ff5696f"
      },
      "encounter": {
        "reference": "Encounter/c29c6edd49167c69995b139fa51a4a3c149516808d5bf146ab5291ad4a8b7ae8"
      },
      "effectiveDateTime": "2020-09-05T21:25:00+00:00",
      "valueQuantity": {
        "value": 69.25090544666513,
        "unit": "mg/dL",
        "system": "http://unitsofmeasure.org",
        "code": "mg/dL"
      }
    },
    "request": {
      "method": "POST",
      "url": "Observation",
      "ifNoneExist": "identifier=https://mein.krankenhaus.de/fhir/NamingSystem/observationId|09bf19e9dce6acc0a788778a6876acd3168305dca4f20af7a58f66b012a712d9"
    }
  }, {
    "fullUrl": "Observation/d7635f373334347cd109e0166f57c1b41ab9cfbb5f53008d0e57f229ae7bc8c5",
    "resource": {
      "resourceType": "Observation",
      "meta": {
        "profile": [ "https://www.medizininformatik-initiative.de/fhir/core/modul-labor/StructureDefinition/ObservationLab" ]
      },
      "identifier": [ {
        "type": {
          "coding": [ {
            "system": "http://terminology.hl7.org/CodeSystem/v2-0203",
            "code": "OBI",
            "display": "Observation Instance Identifier"
          } ]
        },
        "system": "https://mein.krankenhaus.de/fhir/NamingSystem/observationId",
        "value": "6a2abab6079c2f999f837fcec0fd4deacaa03d5c2863da6e0beb79cb60fa249f",
        "assigner": {
          "reference": "Organization/3a4f3433bce81181bad2d8e0b8fafccf7dc800bc06f29be73dcb38b750a48f9a"
        }
      } ],
      "status": "final",
      "category": [ {
        "coding": [ {
          "system": "http://terminology.hl7.org/CodeSystem/observation-category",
          "code": "laboratory",
          "display": "Laboratory"
        }, {
          "system": "http://loinc.org",
          "code": "26436-6"
        } ]
      } ],
      "code": {
        "coding": [ {
          "system": "http://loinc.org",
          "code": "6690-2",
          "display": "leukocytes-in-blood-by-automated-count"
        } ],
        "text": "leukozyten_absolut"
      },
      "subject": {
        "reference": "Patient/d257b1da81b09f2cd05310abe5f920df6a9202de1cc371159676d11b1ff5696f"
      },
      "encounter": {
        "reference": "Encounter/c29c6edd49167c69995b139fa51a4a3c149516808d5bf146ab5291ad4a8b7ae8"
      },
      "effectiveDateTime": "2020-09-05T21:25:00+00:00",
      "valueQuantity": {
        "value": 47.89120487765349,
        "unit": "10*3/uL",
        "system": "http://unitsofmeasure.org",
        "code": "10*3/uL"
      }
    },
    "request": {
      "method": "POST",
      "url": "Observation",
      "ifNoneExist": "identifier=https://mein.krankenhaus.de/fhir/NamingSystem/observationId|d7635f373334347cd109e0166f57c1b41ab9cfbb5f53008d0e57f229ae7bc8c5"
    }
  }, {
    "fullUrl": "Observation/0e92c68b9a7d6c2122e34d732c4091b0769b40b907850d0b1678a7adbe98ceca",
    "resource": {
      "resourceType": "Observation",
      "meta": {
        "profile": [ "https://www.medizininformatik-initiative.de/fhir/core/modul-labor/StructureDefinition/ObservationLab" ]
      },
      "identifier": [ {
        "type": {
          "coding": [ {
            "system": "http://terminology.hl7.org/CodeSystem/v2-0203",
            "code": "OBI",
            "display": "Observation Instance Identifier"
          } ]
        },
        "system": "https://mein.krankenhaus.de/fhir/NamingSystem/observationId",
        "value": "2db79222c18f2b4003b453990914762962cdee6e25676b7a17888d555f0ec59a",
        "assigner": {
          "reference": "Organization/3a4f3433bce81181bad2d8e0b8fafccf7dc800bc06f29be73dcb38b750a48f9a"
        }
      } ],
      "status": "final",
      "category": [ {
        "coding": [ {
          "system": "http://terminology.hl7.org/CodeSystem/observation-category",
          "code": "laboratory",
          "display": "Laboratory"
        }, {
          "system": "http://loinc.org",
          "code": "26436-6"
        } ]
      } ],
      "code": {
        "coding": [ {
          "system": "http://loinc.org",
          "code": "732-8",
          "display": "lymphocytes-in-blood-by-manual-count"
        } ],
        "text": "lymphozyten_absolut"
      },
      "subject": {
        "reference": "Patient/d257b1da81b09f2cd05310abe5f920df6a9202de1cc371159676d11b1ff5696f"
      },
      "encounter": {
        "reference": "Encounter/c29c6edd49167c69995b139fa51a4a3c149516808d5bf146ab5291ad4a8b7ae8"
      },
      "effectiveDateTime": "2020-09-05T21:25:00+00:00",
      "valueQuantity": {
        "value": 8.406590786403568,
        "unit": "10*3/uL",
        "system": "http://unitsofmeasure.org",
        "code": "10*3/uL"
      }
    },
    "request": {
      "method": "POST",
      "url": "Observation",
      "ifNoneExist": "identifier=https://mein.krankenhaus.de/fhir/NamingSystem/observationId|0e92c68b9a7d6c2122e34d732c4091b0769b40b907850d0b1678a7adbe98ceca"
    }
  }, {
    "fullUrl": "Observation/623d7e10aaa0064b2acedacb88fda96a393d05af3e14c9067263c04e30b4583e",
    "resource": {
      "resourceType": "Observation",
      "meta": {
        "profile": [ "https://www.medizininformatik-initiative.de/fhir/core/modul-labor/StructureDefinition/ObservationLab" ]
      },
      "identifier": [ {
        "type": {
          "coding": [ {
            "system": "http://terminology.hl7.org/CodeSystem/v2-0203",
            "code": "OBI",
            "display": "Observation Instance Identifier"
          } ]
        },
        "system": "https://mein.krankenhaus.de/fhir/NamingSystem/observationId",
        "value": "ab5ec2e578ca61788e09ffa87f85d5924dc65a2dac06bcd5208c54dbd7c08a2a",
        "assigner": {
          "reference": "Organization/3a4f3433bce81181bad2d8e0b8fafccf7dc800bc06f29be73dcb38b750a48f9a"
        }
      } ],
      "status": "final",
      "category": [ {
        "coding": [ {
          "system": "http://terminology.hl7.org/CodeSystem/observation-category",
          "code": "laboratory",
          "display": "Laboratory"
        }, {
          "system": "http://loinc.org",
          "code": "26436-6"
        } ]
      } ],
      "code": {
        "coding": [ {
          "system": "http://loinc.org",
          "code": "753-4",
          "display": "neutrophils-in-blood-by-manual-count"
        } ],
        "text": "neutrophile_absolut"
      },
      "subject": {
        "reference": "Patient/d257b1da81b09f2cd05310abe5f920df6a9202de1cc371159676d11b1ff5696f"
      },
      "encounter": {
        "reference": "Encounter/c29c6edd49167c69995b139fa51a4a3c149516808d5bf146ab5291ad4a8b7ae8"
      },
      "effectiveDateTime": "2020-09-05T21:25:00+00:00",
      "valueQuantity": {
        "value": 9.982967209524563,
        "unit": "10*3/uL",
        "system": "http://unitsofmeasure.org",
        "code": "10*3/uL"
      }
    },
    "request": {
      "method": "POST",
      "url": "Observation",
      "ifNoneExist": "identifier=https://mein.krankenhaus.de/fhir/NamingSystem/observationId|623d7e10aaa0064b2acedacb88fda96a393d05af3e14c9067263c04e30b4583e"
    }
  }, {
    "fullUrl": "Observation/af262ccc4322c07a5648e2fabf36b542f36d83353a00e66ae43c4ee3d25b8256",
    "resource": {
      "resourceType": "Observation",
      "meta": {
        "profile": [ "https://www.medizininformatik-initiative.de/fhir/core/modul-labor/StructureDefinition/ObservationLab" ]
      },
      "identifier": [ {
        "type": {
          "coding": [ {
            "system": "http://terminology.hl7.org/CodeSystem/v2-0203",
            "code": "OBI",
            "display": "Observation Instance Identifier"
          } ]
        },
        "system": "https://mein.krankenhaus.de/fhir/NamingSystem/observationId",
        "value": "6f485d31b7d39b8c26a57d4b05b549950ac39eff6a6c3890b0231eebb1b808ae",
        "assigner": {
          "reference": "Organization/3a4f3433bce81181bad2d8e0b8fafccf7dc800bc06f29be73dcb38b750a48f9a"
        }
      } ],
      "status": "final",
      "category": [ {
        "coding": [ {
          "system": "http://terminology.hl7.org/CodeSystem/observation-category",
          "code": "laboratory",
          "display": "Laboratory"
        }, {
          "system": "http://loinc.org",
          "code": "26436-6"
        } ]
      } ],
      "code": {
        "coding": [ {
          "system": "http://loinc.org",
          "code": "778-1",
          "display": "platelets-in-blood-by-manual-count"
        } ],
        "text": "thrombozyten_absolut"
      },
      "subject": {
        "reference": "Patient/d257b1da81b09f2cd05310abe5f920df6a9202de1cc371159676d11b1ff5696f"
      },
      "encounter": {
        "reference": "Encounter/c29c6edd49167c69995b139fa51a4a3c149516808d5bf146ab5291ad4a8b7ae8"
      },
      "effectiveDateTime": "2020-09-05T21:25:00+00:00",
      "valueQuantity": {
        "value": 5.6192228011876395,
        "unit": "10*3/uL",
        "system": "http://unitsofmeasure.org",
        "code": "10*3/uL"
      }
    },
    "request": {
      "method": "POST",
      "url": "Observation",
      "ifNoneExist": "identifier=https://mein.krankenhaus.de/fhir/NamingSystem/observationId|af262ccc4322c07a5648e2fabf36b542f36d83353a00e66ae43c4ee3d25b8256"
    }
  }, {
    "fullUrl": "Observation/2dc16fa02838c3cf274e0e6d8c19d28d68270cffccd1cd905e94eb4b33f19604",
    "resource": {
      "resourceType": "Observation",
      "meta": {
        "profile": [ "https://www.medizininformatik-initiative.de/fhir/core/modul-labor/StructureDefinition/ObservationLab" ]
      },
      "identifier": [ {
        "type": {
          "coding": [ {
            "system": "http://terminology.hl7.org/CodeSystem/v2-0203",
            "code": "OBI",
            "display": "Observation Instance Identifier"
          } ]
        },
        "system": "https://mein.krankenhaus.de/fhir/NamingSystem/observationId",
        "value": "b0efbd90114d23b84f02225e17995585723f6add9ef605ae9b35db9ffbc39253",
        "assigner": {
          "reference": "Organization/3a4f3433bce81181bad2d8e0b8fafccf7dc800bc06f29be73dcb38b750a48f9a"
        }
      } ],
      "status": "final",
      "category": [ {
        "coding": [ {
          "system": "http://terminology.hl7.org/CodeSystem/observation-category",
          "code": "laboratory",
          "display": "Laboratory"
        }, {
          "system": "http://loinc.org",
          "code": "26436-6"
        } ]
      } ],
      "code": {
        "coding": [ {
          "system": "http://loinc.org",
          "code": "34714-6",
          "display": "inr-in-blood-by-coagulation-assay"
        } ],
        "text": "inr"
      },
      "subject": {
        "reference": "Patient/d257b1da81b09f2cd05310abe5f920df6a9202de1cc371159676d11b1ff5696f"
      },
      "encounter": {
        "reference": "Encounter/c29c6edd49167c69995b139fa51a4a3c149516808d5bf146ab5291ad4a8b7ae8"
      },
      "effectiveDateTime": "2020-09-05T21:25:00+00:00",
      "valueQuantity": {
        "value": 60.559436570637494,
        "unit": "{INR}",
        "system": "http://unitsofmeasure.org",
        "code": "{INR}"
      }
    },
    "request": {
      "method": "POST",
      "url": "Observation",
      "ifNoneExist": "identifier=https://mein.krankenhaus.de/fhir/NamingSystem/observationId|2dc16fa02838c3cf274e0e6d8c19d28d68270cffccd1cd905e94eb4b33f19604"
    }
  }, {
    "fullUrl": "Observation/7fcbb6c134676a87a50a7f5d72fffc463a6d39c4697e0624be35788ca2b0be99",
    "resource": {
      "resourceType": "Observation",
      "meta": {
        "profile": [ "https://www.medizininformatik-initiative.de/fhir/core/modul-labor/StructureDefinition/ObservationLab" ]
      },
      "identifier": [ {
        "type": {
          "coding": [ {
            "system": "http://terminology.hl7.org/CodeSystem/v2-0203",
            "code": "OBI",
            "display": "Observation Instance Identifier"
          } ]
        },
        "system": "https://mein.krankenhaus.de/fhir/NamingSystem/observationId",
        "value": "87083c038bf54ce4353f55aefe934cb17df3696bad2e829e40675f57d0a44145",
        "assigner": {
          "reference": "Organization/3a4f3433bce81181bad2d8e0b8fafccf7dc800bc06f29be73dcb38b750a48f9a"
        }
      } ],
      "status": "final",
      "category": [ {
        "coding": [ {
          "system": "http://terminology.hl7.org/CodeSystem/observation-category",
          "code": "laboratory",
          "display": "Laboratory"
        }, {
          "system": "http://loinc.org",
          "code": "26436-6"
        } ]
      } ],
      "code": {
        "coding": [ {
          "system": "http://loinc.org",
          "code": "54347-0",
          "display": "albumin-in-serum-or-plasma"
        } ],
        "text": "serumalbumin"
      },
      "subject": {
        "reference": "Patient/d257b1da81b09f2cd05310abe5f920df6a9202de1cc371159676d11b1ff5696f"
      },
      "encounter": {
        "reference": "Encounter/c29c6edd49167c69995b139fa51a4a3c149516808d5bf146ab5291ad4a8b7ae8"
      },
      "effectiveDateTime": "2020-09-05T21:25:00+00:00",
      "valueQuantity": {
        "value": 47.647959383795225,
        "unit": "umol/L",
        "system": "http://unitsofmeasure.org",
        "code": "umol/L"
      }
    },
    "request": {
      "method": "POST",
      "url": "Observation",
      "ifNoneExist": "identifier=https://mein.krankenhaus.de/fhir/NamingSystem/observationId|7fcbb6c134676a87a50a7f5d72fffc463a6d39c4697e0624be35788ca2b0be99"
    }
  }, {
    "fullUrl": "Observation/e1ef612cde7844f1a4a38594bc4852f818c6a47548198f2a5308a1f6365c1914",
    "resource": {
      "resourceType": "Observation",
      "meta": {
        "profile": [ "https://www.medizininformatik-initiative.de/fhir/core/modul-labor/StructureDefinition/ObservationLab" ]
      },
      "identifier": [ {
        "type": {
          "coding": [ {
            "system": "http://terminology.hl7.org/CodeSystem/v2-0203",
            "code": "OBI",
            "display": "Observation Instance Identifier"
          } ]
        },
        "system": "https://mein.krankenhaus.de/fhir/NamingSystem/observationId",
        "value": "6f71eaef9f7401244c69cb6c14d8ff6e790d5856f88c76925462fe81b7125163",
        "assigner": {
          "reference": "Organization/3a4f3433bce81181bad2d8e0b8fafccf7dc800bc06f29be73dcb38b750a48f9a"
        }
      } ],
      "status": "final",
      "category": [ {
        "coding": [ {
          "system": "http://terminology.hl7.org/CodeSystem/observation-category",
          "code": "laboratory",
          "display": "Laboratory"
        }, {
          "system": "http://loinc.org",
          "code": "26436-6"
        } ]
      } ],
      "code": {
        "coding": [ {
          "system": "http://loinc.org",
          "code": "27812-7",
          "display": "antithrombin-ag-actual-normal-in-platelet-poor-plasma-by-immunoassay"
        } ],
        "text": "antithrombin_iii"
      },
      "subject": {
        "reference": "Patient/d257b1da81b09f2cd05310abe5f920df6a9202de1cc371159676d11b1ff5696f"
      },
      "encounter": {
        "reference": "Encounter/c29c6edd49167c69995b139fa51a4a3c149516808d5bf146ab5291ad4a8b7ae8"
      },
      "effectiveDateTime": "2020-09-05T21:25:00+00:00",
      "valueQuantity": {
        "value": 43.52318315791235,
        "unit": "%",
        "system": "http://unitsofmeasure.org",
        "code": "%"
      }
    },
    "request": {
      "method": "POST",
      "url": "Observation",
      "ifNoneExist": "identifier=https://mein.krankenhaus.de/fhir/NamingSystem/observationId|e1ef612cde7844f1a4a38594bc4852f818c6a47548198f2a5308a1f6365c1914"
    }
  }, {
    "fullUrl": "Observation/ca21892171f5d3efd93046f89d6c0c510b911d10553846089291763cb3a8bd1e",
    "resource": {
      "resourceType": "Observation",
      "meta": {
        "profile": [ "https://www.medizininformatik-initiative.de/fhir/core/modul-labor/StructureDefinition/ObservationLab" ]
      },
      "identifier": [ {
        "type": {
          "coding": [ {
            "system": "http://terminology.hl7.org/CodeSystem/v2-0203",
            "code": "OBI",
            "display": "Observation Instance Identifier"
          } ]
        },
        "system": "https://mein.krankenhaus.de/fhir/NamingSystem/observationId",
        "value": "c22e915c2486c24829187dc3c87571abb52109c5715c0fc29b20b9fe89463451",
        "assigner": {
          "reference": "Organization/3a4f3433bce81181bad2d8e0b8fafccf7dc800bc06f29be73dcb38b750a48f9a"
        }
      } ],
      "status": "final",
      "category": [ {
        "coding": [ {
          "system": "http://terminology.hl7.org/CodeSystem/observation-category",
          "code": "laboratory",
          "display": "Laboratory"
        }, {
          "system": "http://loinc.org",
          "code": "26436-6"
        } ]
      } ],
      "code": {
        "coding": [ {
          "system": "http://loinc.org",
          "code": "75241-0",
          "display": "procalcitonin-in-serum-or-plasma-by-immunoassay"
        } ],
        "text": "pct_procalcitonin"
      },
      "subject": {
        "reference": "Patient/d257b1da81b09f2cd05310abe5f920df6a9202de1cc371159676d11b1ff5696f"
      },
      "encounter": {
        "reference": "Encounter/c29c6edd49167c69995b139fa51a4a3c149516808d5bf146ab5291ad4a8b7ae8"
      },
      "effectiveDateTime": "2020-09-05T21:25:00+00:00",
      "valueQuantity": {
        "value": 46.594919902452304,
        "unit": "ng/mL",
        "system": "http://unitsofmeasure.org",
        "code": "ng/mL"
      }
    },
    "request": {
      "method": "POST",
      "url": "Observation",
      "ifNoneExist": "identifier=https://mein.krankenhaus.de/fhir/NamingSystem/observationId|ca21892171f5d3efd93046f89d6c0c510b911d10553846089291763cb3a8bd1e"
    }
  }, {
    "fullUrl": "Observation/8cf4a9e3cce4df7417eda02838044678a1edf5519ce6615e7d027c2d2d1baa14",
    "resource": {
      "resourceType": "Observation",
      "meta": {
        "profile": [ "https://www.medizininformatik-initiative.de/fhir/core/modul-labor/StructureDefinition/ObservationLab" ]
      },
      "identifier": [ {
        "type": {
          "coding": [ {
            "system": "http://terminology.hl7.org/CodeSystem/v2-0203",
            "code": "OBI",
            "display": "Observation Instance Identifier"
          } ]
        },
        "system": "https://mein.krankenhaus.de/fhir/NamingSystem/observationId",
        "value": "ca576a6743c4de5e0f84cfd2c299a1f8400506291626b4de98f8dba23e5e322f",
        "assigner": {
          "reference": "Organization/3a4f3433bce81181bad2d8e0b8fafccf7dc800bc06f29be73dcb38b750a48f9a"
        }
      } ],
      "status": "final",
      "category": [ {
        "coding": [ {
          "system": "http://terminology.hl7.org/CodeSystem/observation-category",
          "code": "laboratory",
          "display": "Laboratory"
        }, {
          "system": "http://loinc.org",
          "code": "26436-6"
        } ]
      } ],
      "code": {
        "coding": [ {
          "system": "http://loinc.org",
          "code": "49919-4",
          "display": "interleukin-6-in-cerebral-spinal-fluid"
        } ],
        "text": "il6_interleukin_6"
      },
      "subject": {
        "reference": "Patient/d257b1da81b09f2cd05310abe5f920df6a9202de1cc371159676d11b1ff5696f"
      },
      "encounter": {
        "reference": "Encounter/c29c6edd49167c69995b139fa51a4a3c149516808d5bf146ab5291ad4a8b7ae8"
      },
      "effectiveDateTime": "2020-09-05T21:25:00+00:00",
      "valueQuantity": {
        "value": 94.55099530709559,
        "unit": "pg/mL",
        "system": "http://unitsofmeasure.org",
        "code": "pg/mL"
      }
    },
    "request": {
      "method": "POST",
      "url": "Observation",
      "ifNoneExist": "identifier=https://mein.krankenhaus.de/fhir/NamingSystem/observationId|8cf4a9e3cce4df7417eda02838044678a1edf5519ce6615e7d027c2d2d1baa14"
    }
  }, {
    "fullUrl": "Observation/52422dc96599937ae38553e801b6ba1cbce401dd6ebf49a0a04ab2144c282d90",
    "resource": {
      "resourceType": "Observation",
      "meta": {
        "profile": [ "https://www.medizininformatik-initiative.de/fhir/core/modul-labor/StructureDefinition/ObservationLab" ]
      },
      "identifier": [ {
        "type": {
          "coding": [ {
            "system": "http://terminology.hl7.org/CodeSystem/v2-0203",
            "code": "OBI",
            "display": "Observation Instance Identifier"
          } ]
        },
        "system": "https://mein.krankenhaus.de/fhir/NamingSystem/observationId",
        "value": "6a01757bd93f61aa8352493e4111115b676a98981c48d69ef11e268a8f3967e4",
        "assigner": {
          "reference": "Organization/3a4f3433bce81181bad2d8e0b8fafccf7dc800bc06f29be73dcb38b750a48f9a"
        }
      } ],
      "status": "final",
      "category": [ {
        "coding": [ {
          "system": "http://terminology.hl7.org/CodeSystem/observation-category",
          "code": "laboratory",
          "display": "Laboratory"
        }, {
          "system": "http://loinc.org",
          "code": "26436-6"
        } ]
      } ],
      "code": {
        "coding": [ {
          "system": "http://loinc.org",
          "code": "33762-6",
          "display": "natriuretic-peptide.b-prohormone-n-terminal-in-serum-or-plasma"
        } ],
        "text": "ntprobnp"
      },
      "subject": {
        "reference": "Patient/d257b1da81b09f2cd05310abe5f920df6a9202de1cc371159676d11b1ff5696f"
      },
      "encounter": {
        "reference": "Encounter/c29c6edd49167c69995b139fa51a4a3c149516808d5bf146ab5291ad4a8b7ae8"
      },
      "effectiveDateTime": "2020-09-05T21:25:00+00:00",
      "valueQuantity": {
        "value": 33.3894431785166,
        "unit": "pg/mL",
        "system": "http://unitsofmeasure.org",
        "code": "pg/mL"
      }
    },
    "request": {
      "method": "POST",
      "url": "Observation",
      "ifNoneExist": "identifier=https://mein.krankenhaus.de/fhir/NamingSystem/observationId|52422dc96599937ae38553e801b6ba1cbce401dd6ebf49a0a04ab2144c282d90"
    }
  }, {
    "fullUrl": "Observation/b47fb08f4dad058531f1fffa8c16a92a3e3390722937ae12f67b700f5229cf28",
    "resource": {
      "resourceType": "Observation",
      "meta": {
        "profile": [ "https://www.medizininformatik-initiative.de/fhir/core/modul-labor/StructureDefinition/ObservationLab" ]
      },
      "identifier": [ {
        "type": {
          "coding": [ {
            "system": "http://terminology.hl7.org/CodeSystem/v2-0203",
            "code": "OBI",
            "display": "Observation Instance Identifier"
          } ]
        },
        "system": "https://mein.krankenhaus.de/fhir/NamingSystem/observationId",
        "value": "6da79c09744807174cb8e45c7a82c04ff0e0da565383da496a43b2dab4ba0c93",
        "assigner": {
          "reference": "Organization/3a4f3433bce81181bad2d8e0b8fafccf7dc800bc06f29be73dcb38b750a48f9a"
        }
      } ],
      "status": "final",
      "category": [ {
        "coding": [ {
          "system": "http://terminology.hl7.org/CodeSystem/observation-category",
          "code": "laboratory",
          "display": "Laboratory"
        }, {
          "system": "http://loinc.org",
          "code": "26436-6"
        } ]
      } ],
      "code": {
        "coding": [ {
          "system": "http://loinc.org",
          "code": "3255-7",
          "display": "fibrinogen-in-platelet-poor-plasma-by-coagulation-assay"
        } ],
        "text": "fibrinogen"
      },
      "subject": {
        "reference": "Patient/d257b1da81b09f2cd05310abe5f920df6a9202de1cc371159676d11b1ff5696f"
      },
      "encounter": {
        "reference": "Encounter/c29c6edd49167c69995b139fa51a4a3c149516808d5bf146ab5291ad4a8b7ae8"
      },
      "effectiveDateTime": "2020-09-05T21:25:00+00:00",
      "valueQuantity": {
        "value": 53.538285840083155,
        "unit": "mg/dL",
        "system": "http://unitsofmeasure.org",
        "code": "mg/dL"
      }
    },
    "request": {
      "method": "POST",
      "url": "Observation",
      "ifNoneExist": "identifier=https://mein.krankenhaus.de/fhir/NamingSystem/observationId|b47fb08f4dad058531f1fffa8c16a92a3e3390722937ae12f67b700f5229cf28"
    }
  }, {
    "fullUrl": "Observation/211d03c3b85792eab8d7ae9acfeb5388d68402ec2c5d1dc777625686da40dfb8",
    "resource": {
      "resourceType": "Observation",
      "meta": {
        "profile": [ "https://www.netzwerk-universitaetsmedizin.de/fhir/StructureDefinition/sars-cov-2-rt-pcr" ]
      },
      "identifier": [ {
        "type": {
          "coding": [ {
            "system": "http://terminology.hl7.org/CodeSystem/v2-0203",
            "code": "OBI",
            "display": "Observation Instance Identifier"
          } ]
        },
        "system": "https://mein.krankenhaus.de/fhir/NamingSystem/observationId",
        "value": "e5f5d7436779d6ed64f268362d15aa5c09578df7aa966c1caff23d53c6d9dab4",
        "assigner": {
          "reference": "Organization/3a4f3433bce81181bad2d8e0b8fafccf7dc800bc06f29be73dcb38b750a48f9a"
        }
      } ],
      "status": "final",
      "category": [ {
        "coding": [ {
          "system": "http://terminology.hl7.org/CodeSystem/observation-category",
          "code": "laboratory",
          "display": "Laboratory"
        }, {
          "system": "http://loinc.org",
          "code": "26436-6"
        } ]
      } ],
      "code": {
        "coding": [ {
          "system": "http://loinc.org",
          "code": "94500-6",
          "display": "sars-cov-2-covid-19-rna-in-respiratory-specimen-by-naa-with-probe-detection"
        } ],
        "text": "SARS-CoV-2-RNA (PCR)"
      },
      "subject": {
        "reference": "Patient/d257b1da81b09f2cd05310abe5f920df6a9202de1cc371159676d11b1ff5696f"
      },
      "encounter": {
        "reference": "Encounter/c29c6edd49167c69995b139fa51a4a3c149516808d5bf146ab5291ad4a8b7ae8"
      },
      "effectiveDateTime": "2020-09-05T21:25:00+00:00",
      "valueCodeableConcept": {
        "coding": [ {
          "system": "http://snomed.info/sct",
          "code": "419984006",
          "display": "Inconclusive (qualifier value)"
        } ],
        "text": "SARS-CoV-2-RNA nicht eindeutig"
      }
    },
    "request": {
      "method": "POST",
      "url": "Observation",
      "ifNoneExist": "identifier=https://mein.krankenhaus.de/fhir/NamingSystem/observationId|211d03c3b85792eab8d7ae9acfeb5388d68402ec2c5d1dc777625686da40dfb8"
    }
  }, {
    "fullUrl": "Observation/f2ace4c591e65eda07946ef9db7a336d4b3def3479850aa529223bf09318aa59",
    "resource": {
      "resourceType": "Observation",
      "meta": {
        "profile": [ "https://www.netzwerk-universitaetsmedizin.de/fhir/StructureDefinition/sars-cov-2-ab-pnl-ser-pl-ia" ]
      },
      "identifier": [ {
        "type": {
          "coding": [ {
            "system": "http://terminology.hl7.org/CodeSystem/v2-0203",
            "code": "OBI",
            "display": "Observation Instance Identifier"
          } ]
        },
        "system": "https://mein.krankenhaus.de/fhir/NamingSystem/observationId",
        "value": "c00c7bfc75fe7e4f70e60d22a88fe73dcf8da8d898d1ad958741086795e4753f",
        "assigner": {
          "reference": "Organization/3a4f3433bce81181bad2d8e0b8fafccf7dc800bc06f29be73dcb38b750a48f9a"
        }
      } ],
      "status": "final",
      "category": [ {
        "coding": [ {
          "system": "http://terminology.hl7.org/CodeSystem/observation-category",
          "code": "laboratory",
          "display": "Laboratory"
        }, {
          "system": "http://loinc.org",
          "code": "26436-6"
        } ]
      } ],
      "code": {
        "coding": [ {
          "system": "http://loinc.org",
          "code": "94504-8"
        } ],
        "text": "sarsco_v2_covid19_ab_pnl"
      },
      "subject": {
        "reference": "Patient/d257b1da81b09f2cd05310abe5f920df6a9202de1cc371159676d11b1ff5696f"
      },
      "encounter": {
        "reference": "Encounter/c29c6edd49167c69995b139fa51a4a3c149516808d5bf146ab5291ad4a8b7ae8"
      },
      "effectiveDateTime": "2020-09-05T21:25:00+00:00",
      "hasMember": [ {
        "reference": "Observation/d14b4209a94a7fb98ab5c4e4634be66f1115c6f8afb1d53e4dd312ac3277a010"
      }, {
        "reference": "Observation/df6719890a3a129cdbbe3e99160cacd68a6641531c7b483027ebf1f874cd993c"
      }, {
        "reference": "Observation/0fa07132ca8fb3a4b2cdff78c6cbb5e7c46ee2ab8f7e0946c4be4cbfa08a85e1"
      }, {
        "reference": "Observation/1dd1eb688185c2640a76923333f75b39b1ec182ff433c636cbdf4f4ef5ea7029"
      }, {
        "reference": "Observation/62bd9709910346f4ff21b600b580c95beeed40927d7fa1420d3fe99e8aa8f7eb"
      }, {
        "reference": "Observation/b09bc64056d4d74a1aa9fec171224c6d4c43d00c1dcf89d3a413c2033f5c720e"
      }, {
        "reference": "Observation/e1b49fbc1ff56d8fdbd56dd839d650c5cf8fe05963ee9e8097b8df23315580f9"
      } ]
    },
    "request": {
      "method": "POST",
      "url": "Observation",
      "ifNoneExist": "identifier=https://mein.krankenhaus.de/fhir/NamingSystem/observationId|f2ace4c591e65eda07946ef9db7a336d4b3def3479850aa529223bf09318aa59"
    }
  }, {
    "fullUrl": "Observation/d14b4209a94a7fb98ab5c4e4634be66f1115c6f8afb1d53e4dd312ac3277a010",
    "resource": {
      "resourceType": "Observation",
      "meta": {
        "profile": [ "https://www.netzwerk-universitaetsmedizin.de/fhir/StructureDefinition/sars-cov-2-ab-ser-pl-ia-acnc" ]
      },
      "identifier": [ {
        "type": {
          "coding": [ {
            "system": "http://terminology.hl7.org/CodeSystem/v2-0203",
            "code": "OBI",
            "display": "Observation Instance Identifier"
          } ]
        },
        "system": "https://mein.krankenhaus.de/fhir/NamingSystem/observationId",
        "value": "9bc7685aa97c4ddbb421a2954cda43317a4673418f5c17cb161f5734dbf22d1b",
        "assigner": {
          "reference": "Organization/3a4f3433bce81181bad2d8e0b8fafccf7dc800bc06f29be73dcb38b750a48f9a"
        }
      } ],
      "status": "final",
      "category": [ {
        "coding": [ {
          "system": "http://terminology.hl7.org/CodeSystem/observation-category",
          "code": "laboratory",
          "display": "Laboratory"
        }, {
          "system": "http://loinc.org",
          "code": "26436-6"
        } ]
      } ],
      "code": {
        "coding": [ {
          "system": "http://loinc.org",
          "code": "94769-7",
          "display": "sars-cov-2-covid-19-ab-in-serum-or-plasma-by-immunoassay"
        } ],
        "text": "sarsco_v2_covid19_ab_ia_qn"
      },
      "subject": {
        "reference": "Patient/d257b1da81b09f2cd05310abe5f920df6a9202de1cc371159676d11b1ff5696f"
      },
      "encounter": {
        "reference": "Encounter/c29c6edd49167c69995b139fa51a4a3c149516808d5bf146ab5291ad4a8b7ae8"
      },
      "effectiveDateTime": "2020-09-05T21:25:00+00:00",
      "valueQuantity": {
        "value": 19.42259122427864,
        "unit": "[IU]/mL",
        "system": "http://unitsofmeasure.org",
        "code": "[IU]/mL"
      }
    },
    "request": {
      "method": "POST",
      "url": "Observation",
      "ifNoneExist": "identifier=https://mein.krankenhaus.de/fhir/NamingSystem/observationId|d14b4209a94a7fb98ab5c4e4634be66f1115c6f8afb1d53e4dd312ac3277a010"
    }
  }, {
    "fullUrl": "Observation/df6719890a3a129cdbbe3e99160cacd68a6641531c7b483027ebf1f874cd993c",
    "resource": {
      "resourceType": "Observation",
      "meta": {
        "profile": [ "https://www.netzwerk-universitaetsmedizin.de/fhir/StructureDefinition/sars-cov-2-iga-ser-pl-ql-ia" ]
      },
      "identifier": [ {
        "type": {
          "coding": [ {
            "system": "http://terminology.hl7.org/CodeSystem/v2-0203",
            "code": "OBI",
            "display": "Observation Instance Identifier"
          } ]
        },
        "system": "https://mein.krankenhaus.de/fhir/NamingSystem/observationId",
        "value": "9b9947a3d6f02613e256b1c506e232e8dfaf4e7a58cc3b2e34078bad539ba035",
        "assigner": {
          "reference": "Organization/3a4f3433bce81181bad2d8e0b8fafccf7dc800bc06f29be73dcb38b750a48f9a"
        }
      } ],
      "status": "final",
      "category": [ {
        "coding": [ {
          "system": "http://terminology.hl7.org/CodeSystem/observation-category",
          "code": "laboratory",
          "display": "Laboratory"
        }, {
          "system": "http://loinc.org",
          "code": "26436-6"
        } ]
      } ],
      "code": {
        "coding": [ {
          "system": "http://loinc.org",
          "code": "94562-6",
          "display": "sars-cov-2-covid-19-iga-ab-in-serum-or-plasma-by-immunoassay"
        } ],
        "text": "sarsco_v2_covid19_ig_a_ia_ql"
      },
      "subject": {
        "reference": "Patient/d257b1da81b09f2cd05310abe5f920df6a9202de1cc371159676d11b1ff5696f"
      },
      "encounter": {
        "reference": "Encounter/c29c6edd49167c69995b139fa51a4a3c149516808d5bf146ab5291ad4a8b7ae8"
      },
      "effectiveDateTime": "2020-09-05T21:25:00+00:00",
      "valueCodeableConcept": {
        "coding": [ {
          "system": "http://snomed.info/sct",
          "code": "260373001"
        } ]
      }
    },
    "request": {
      "method": "POST",
      "url": "Observation",
      "ifNoneExist": "identifier=https://mein.krankenhaus.de/fhir/NamingSystem/observationId|df6719890a3a129cdbbe3e99160cacd68a6641531c7b483027ebf1f874cd993c"
    }
  }, {
    "fullUrl": "Observation/0fa07132ca8fb3a4b2cdff78c6cbb5e7c46ee2ab8f7e0946c4be4cbfa08a85e1",
    "resource": {
      "resourceType": "Observation",
      "meta": {
        "profile": [ "https://www.netzwerk-universitaetsmedizin.de/fhir/StructureDefinition/sars-cov-2-iga-ser-pl-ia-acnc" ]
      },
      "identifier": [ {
        "type": {
          "coding": [ {
            "system": "http://terminology.hl7.org/CodeSystem/v2-0203",
            "code": "OBI",
            "display": "Observation Instance Identifier"
          } ]
        },
        "system": "https://mein.krankenhaus.de/fhir/NamingSystem/observationId",
        "value": "03aa3e5d11f946fa02194799c087070f872205e82701262dfdd7094f4c5adeac",
        "assigner": {
          "reference": "Organization/3a4f3433bce81181bad2d8e0b8fafccf7dc800bc06f29be73dcb38b750a48f9a"
        }
      } ],
      "status": "final",
      "category": [ {
        "coding": [ {
          "system": "http://terminology.hl7.org/CodeSystem/observation-category",
          "code": "laboratory",
          "display": "Laboratory"
        }, {
          "system": "http://loinc.org",
          "code": "26436-6"
        } ]
      } ],
      "code": {
        "coding": [ {
          "system": "http://loinc.org",
          "code": "94720-0",
          "display": "sars-cov-2-covid-19-iga-ab-in-serum-or-plasma-by-immunoassay"
        } ],
        "text": "sarsco_v2_covid19_ig_a_ia_qn"
      },
      "subject": {
        "reference": "Patient/d257b1da81b09f2cd05310abe5f920df6a9202de1cc371159676d11b1ff5696f"
      },
      "encounter": {
        "reference": "Encounter/c29c6edd49167c69995b139fa51a4a3c149516808d5bf146ab5291ad4a8b7ae8"
      },
      "effectiveDateTime": "2020-09-05T21:25:00+00:00",
      "valueQuantity": {
        "value": 53.917414778014184,
        "unit": "[IU]/mL",
        "system": "http://unitsofmeasure.org",
        "code": "[IU]/mL"
      }
    },
    "request": {
      "method": "POST",
      "url": "Observation",
      "ifNoneExist": "identifier=https://mein.krankenhaus.de/fhir/NamingSystem/observationId|0fa07132ca8fb3a4b2cdff78c6cbb5e7c46ee2ab8f7e0946c4be4cbfa08a85e1"
    }
  }, {
    "fullUrl": "Observation/1dd1eb688185c2640a76923333f75b39b1ec182ff433c636cbdf4f4ef5ea7029",
    "resource": {
      "resourceType": "Observation",
      "meta": {
        "profile": [ "https://www.netzwerk-universitaetsmedizin.de/fhir/StructureDefinition/sars-cov-2-igg-ser-pl-ql-ia" ]
      },
      "identifier": [ {
        "type": {
          "coding": [ {
            "system": "http://terminology.hl7.org/CodeSystem/v2-0203",
            "code": "OBI",
            "display": "Observation Instance Identifier"
          } ]
        },
        "system": "https://mein.krankenhaus.de/fhir/NamingSystem/observationId",
        "value": "2128d156058da895edc2940ed4ffa0801ebd0d07b3d70ba48dc0849653a46ece",
        "assigner": {
          "reference": "Organization/3a4f3433bce81181bad2d8e0b8fafccf7dc800bc06f29be73dcb38b750a48f9a"
        }
      } ],
      "status": "final",
      "category": [ {
        "coding": [ {
          "system": "http://terminology.hl7.org/CodeSystem/observation-category",
          "code": "laboratory",
          "display": "Laboratory"
        }, {
          "system": "http://loinc.org",
          "code": "26436-6"
        } ]
      } ],
      "code": {
        "coding": [ {
          "system": "http://loinc.org",
          "code": "94563-4",
          "display": "sars-cov-2-covid-19-igg-ab-in-serum-or-plasma-by-immunoassay"
        } ],
        "text": "sarsco_v2_covid19_ig_g_ia_ql"
      },
      "subject": {
        "reference": "Patient/d257b1da81b09f2cd05310abe5f920df6a9202de1cc371159676d11b1ff5696f"
      },
      "encounter": {
        "reference": "Encounter/c29c6edd49167c69995b139fa51a4a3c149516808d5bf146ab5291ad4a8b7ae8"
      },
      "effectiveDateTime": "2020-09-05T21:25:00+00:00",
      "valueCodeableConcept": {
        "coding": [ {
          "system": "http://snomed.info/sct",
          "code": "260415000"
        } ]
      }
    },
    "request": {
      "method": "POST",
      "url": "Observation",
      "ifNoneExist": "identifier=https://mein.krankenhaus.de/fhir/NamingSystem/observationId|1dd1eb688185c2640a76923333f75b39b1ec182ff433c636cbdf4f4ef5ea7029"
    }
  }, {
    "fullUrl": "Observation/62bd9709910346f4ff21b600b580c95beeed40927d7fa1420d3fe99e8aa8f7eb",
    "resource": {
      "resourceType": "Observation",
      "meta": {
        "profile": [ "https://www.netzwerk-universitaetsmedizin.de/fhir/StructureDefinition/sars-cov-2-igg-ser-pl-ia-acnc" ]
      },
      "identifier": [ {
        "type": {
          "coding": [ {
            "system": "http://terminology.hl7.org/CodeSystem/v2-0203",
            "code": "OBI",
            "display": "Observation Instance Identifier"
          } ]
        },
        "system": "https://mein.krankenhaus.de/fhir/NamingSystem/observationId",
        "value": "612b2fd416a0e4276899581e295be6db21f0da561ee1c8bff4688bbd8628b4e8",
        "assigner": {
          "reference": "Organization/3a4f3433bce81181bad2d8e0b8fafccf7dc800bc06f29be73dcb38b750a48f9a"
        }
      } ],
      "status": "final",
      "category": [ {
        "coding": [ {
          "system": "http://terminology.hl7.org/CodeSystem/observation-category",
          "code": "laboratory",
          "display": "Laboratory"
        }, {
          "system": "http://loinc.org",
          "code": "26436-6"
        } ]
      } ],
      "code": {
        "coding": [ {
          "system": "http://loinc.org",
          "code": "94505-5",
          "display": "sars-cov-2-covid-19-igg-ab-in-serum-or-plasma-by-immunoassay"
        } ],
        "text": "sarsco_v2_covid19_ig_g_ia_qn"
      },
      "subject": {
        "reference": "Patient/d257b1da81b09f2cd05310abe5f920df6a9202de1cc371159676d11b1ff5696f"
      },
      "encounter": {
        "reference": "Encounter/c29c6edd49167c69995b139fa51a4a3c149516808d5bf146ab5291ad4a8b7ae8"
      },
      "effectiveDateTime": "2020-09-05T21:25:00+00:00",
      "valueQuantity": {
        "value": 56.106684557595344,
        "unit": "[arb'U]/mL",
        "system": "http://unitsofmeasure.org",
        "code": "[arb'U]/mL"
      }
    },
    "request": {
      "method": "POST",
      "url": "Observation",
      "ifNoneExist": "identifier=https://mein.krankenhaus.de/fhir/NamingSystem/observationId|62bd9709910346f4ff21b600b580c95beeed40927d7fa1420d3fe99e8aa8f7eb"
    }
  }, {
    "fullUrl": "Observation/b09bc64056d4d74a1aa9fec171224c6d4c43d00c1dcf89d3a413c2033f5c720e",
    "resource": {
      "resourceType": "Observation",
      "meta": {
        "profile": [ "https://www.netzwerk-universitaetsmedizin.de/fhir/StructureDefinition/sars-cov-2-igm-ser-pl-ql-ia" ]
      },
      "identifier": [ {
        "type": {
          "coding": [ {
            "system": "http://terminology.hl7.org/CodeSystem/v2-0203",
            "code": "OBI",
            "display": "Observation Instance Identifier"
          } ]
        },
        "system": "https://mein.krankenhaus.de/fhir/NamingSystem/observationId",
        "value": "98d4e8aa95f507ffd59357c9e95e4dd835a110f0b5a1a0ad90285b5bdfd98439",
        "assigner": {
          "reference": "Organization/3a4f3433bce81181bad2d8e0b8fafccf7dc800bc06f29be73dcb38b750a48f9a"
        }
      } ],
      "status": "final",
      "category": [ {
        "coding": [ {
          "system": "http://terminology.hl7.org/CodeSystem/observation-category",
          "code": "laboratory",
          "display": "Laboratory"
        }, {
          "system": "http://loinc.org",
          "code": "26436-6"
        } ]
      } ],
      "code": {
        "coding": [ {
          "system": "http://loinc.org",
          "code": "94564-2",
          "display": "sars-cov-2-covid-19-igm-ab-in-serum-or-plasma-by-immunoassay"
        } ],
        "text": "sarsco_v2_covid19_ig_m_ia_ql"
      },
      "subject": {
        "reference": "Patient/d257b1da81b09f2cd05310abe5f920df6a9202de1cc371159676d11b1ff5696f"
      },
      "encounter": {
        "reference": "Encounter/c29c6edd49167c69995b139fa51a4a3c149516808d5bf146ab5291ad4a8b7ae8"
      },
      "effectiveDateTime": "2020-09-05T21:25:00+00:00",
      "valueCodeableConcept": {
        "coding": [ {
          "system": "http://snomed.info/sct",
          "code": "260373001"
        } ]
      }
    },
    "request": {
      "method": "POST",
      "url": "Observation",
      "ifNoneExist": "identifier=https://mein.krankenhaus.de/fhir/NamingSystem/observationId|b09bc64056d4d74a1aa9fec171224c6d4c43d00c1dcf89d3a413c2033f5c720e"
    }
  }, {
    "fullUrl": "Observation/e1b49fbc1ff56d8fdbd56dd839d650c5cf8fe05963ee9e8097b8df23315580f9",
    "resource": {
      "resourceType": "Observation",
      "meta": {
        "profile": [ "https://www.netzwerk-universitaetsmedizin.de/fhir/StructureDefinition/sars-cov-2-igm-ser-pl-ia-acnc" ]
      },
      "identifier": [ {
        "type": {
          "coding": [ {
            "system": "http://terminology.hl7.org/CodeSystem/v2-0203",
            "code": "OBI",
            "display": "Observation Instance Identifier"
          } ]
        },
        "system": "https://mein.krankenhaus.de/fhir/NamingSystem/observationId",
        "value": "fbff1acfd3570d578c61542245c5be45c02767ab9304bc4b8f80011d10cb1678",
        "assigner": {
          "reference": "Organization/3a4f3433bce81181bad2d8e0b8fafccf7dc800bc06f29be73dcb38b750a48f9a"
        }
      } ],
      "status": "final",
      "category": [ {
        "coding": [ {
          "system": "http://terminology.hl7.org/CodeSystem/observation-category",
          "code": "laboratory",
          "display": "Laboratory"
        }, {
          "system": "http://loinc.org",
          "code": "26436-6"
        } ]
      } ],
      "code": {
        "coding": [ {
          "system": "http://loinc.org",
          "code": "94506-3",
          "display": "sars-cov-2-covid-19-igm-ab-in-serum-or-plasma-by-immunoassay"
        } ],
        "text": "sarsco_v2_covid19_ig_m_ia_qn"
      },
      "subject": {
        "reference": "Patient/d257b1da81b09f2cd05310abe5f920df6a9202de1cc371159676d11b1ff5696f"
      },
      "encounter": {
        "reference": "Encounter/c29c6edd49167c69995b139fa51a4a3c149516808d5bf146ab5291ad4a8b7ae8"
      },
      "effectiveDateTime": "2020-09-05T21:25:00+00:00",
      "valueQuantity": {
        "value": 26.632557832795833,
        "unit": "[arb'U]/mL",
        "system": "http://unitsofmeasure.org",
        "code": "[arb'U]/mL"
      }
    },
    "request": {
      "method": "POST",
      "url": "Observation",
      "ifNoneExist": "identifier=https://mein.krankenhaus.de/fhir/NamingSystem/observationId|e1b49fbc1ff56d8fdbd56dd839d650c5cf8fe05963ee9e8097b8df23315580f9"
    }
  }, {
    "fullUrl": "Observation/7fbe3c262ffdef792e8122f1dea81e518d2e9e3a9f34f05d3e3e3a21eae78907",
    "resource": {
      "resourceType": "Observation",
      "meta": {
        "profile": [ "https://www.netzwerk-universitaetsmedizin.de/fhir/StructureDefinition/study-inclusion-covid-19" ]
      },
      "identifier": [ {
        "type": {
          "coding": [ {
            "system": "http://terminology.hl7.org/CodeSystem/v2-0203",
            "code": "OBI",
            "display": "Observation Instance Identifier"
          } ]
        },
        "system": "https://mein.krankenhaus.de/fhir/NamingSystem/observationId",
        "value": "445809c20c6d55dc87544847a0f0d0829a20fa9d0ef115f72908550a9737845e",
        "assigner": {
          "reference": "Organization/3a4f3433bce81181bad2d8e0b8fafccf7dc800bc06f29be73dcb38b750a48f9a"
        }
      } ],
      "status": "final",
      "category": [ {
        "coding": [ {
          "system": "http://terminology.hl7.org/CodeSystem/observation-category",
          "code": "survey",
          "display": "Survey"
        } ]
      } ],
      "code": {
        "coding": [ {
          "system": "https://www.netzwerk-universitaetsmedizin.de/fhir/CodeSystem/ecrf-parameter-codes",
          "code": "02",
          "display": "Study inclusion due to Covid-19"
        } ],
        "text": "Confirmed Covid-19 diagnosis as main reason for enrolment in the study"
      },
      "subject": {
        "reference": "Patient/d257b1da81b09f2cd05310abe5f920df6a9202de1cc371159676d11b1ff5696f"
      },
      "_effectiveDateTime": {
        "extension": [ {
          "url": "http://hl7.org/fhir/StructureDefinition/data-absent-reason",
          "valueCode": "unknown"
        } ]
      },
      "valueCodeableConcept": {
        "coding": [ {
          "system": "http://snomed.info/sct",
          "code": "373067005"
        } ]
      }
    },
    "request": {
      "method": "POST",
      "url": "Observation",
      "ifNoneExist": "identifier=https://mein.krankenhaus.de/fhir/NamingSystem/observationId|7fbe3c262ffdef792e8122f1dea81e518d2e9e3a9f34f05d3e3e3a21eae78907"
    }
  }, {
    "fullUrl": "Observation/5f8e1b720e6b8d4f22fa5e6ea6907b1355558d3f1d7b849ecfac4b39b799b3be",
    "resource": {
      "resourceType": "Observation",
      "meta": {
        "profile": [ "https://www.netzwerk-universitaetsmedizin.de/fhir/StructureDefinition/interventional-clinical-trial-participation" ]
      },
      "identifier": [ {
        "type": {
          "coding": [ {
            "system": "http://terminology.hl7.org/CodeSystem/v2-0203",
            "code": "OBI",
            "display": "Observation Instance Identifier"
          } ]
        },
        "system": "https://mein.krankenhaus.de/fhir/NamingSystem/observationId",
        "value": "d2a9125c312f92a734ecddab79874711e094761e09147fda934450f6a667410b",
        "assigner": {
          "reference": "Organization/3a4f3433bce81181bad2d8e0b8fafccf7dc800bc06f29be73dcb38b750a48f9a"
        }
      } ],
      "status": "final",
      "category": [ {
        "coding": [ {
          "system": "http://terminology.hl7.org/CodeSystem/observation-category",
          "code": "survey",
          "display": "Survey"
        } ]
      } ],
      "code": {
        "coding": [ {
          "system": "https://www.netzwerk-universitaetsmedizin.de/fhir/CodeSystem/ecrf-parameter-codes",
          "code": "03",
          "display": "Participation in interventional clinical trials"
        } ],
        "text": "Has the patient participated in one or more interventional clinical trials?"
      },
      "subject": {
        "reference": "Patient/d257b1da81b09f2cd05310abe5f920df6a9202de1cc371159676d11b1ff5696f"
      },
      "_effectiveDateTime": {
        "extension": [ {
          "url": "http://hl7.org/fhir/StructureDefinition/data-absent-reason",
          "valueCode": "unknown"
        } ]
      },
      "valueCodeableConcept": {
        "coding": [ {
          "system": "http://snomed.info/sct",
          "code": "261665006"
        } ]
      }
    },
    "request": {
      "method": "POST",
      "url": "Observation",
      "ifNoneExist": "identifier=https://mein.krankenhaus.de/fhir/NamingSystem/observationId|5f8e1b720e6b8d4f22fa5e6ea6907b1355558d3f1d7b849ecfac4b39b799b3be"
    }
  } ]
}