{
  "resourceType": "Bundle",
  "meta": {
    "profile": [ "https://www.netzwerk-universitaetsmedizin.de/fhir/StructureDefinition/gecco-bundle" ]
  },
  "type": "transaction",
  "entry": [ {
    "fullUrl": "Patient/a8049a191013251ddc3044a0a349c06ef544bdc4a2a07cc80ce470ce73b94eb8",
    "resource": {
      "resourceType": "Patient",
      "meta": {
        "profile": [ "https://www.netzwerk-universitaetsmedizin.de/fhir/StructureDefinition/Patient" ]
      },
      "extension": [ {
        "url": "https://www.netzwerk-universitaetsmedizin.de/fhir/StructureDefinition/age",
        "extension": [ {
          "url": "dateTimeOfDocumentation",
          "_valueDateTime": {
            "extension": [ {
              "url": "http://hl7.org/fhir/StructureDefinition/data-absent-reason",
              "valueCode": "unknown"
            } ]
          }
        }, {
          "url": "age",
          "valueAge": {
            "value": 31,
            "unit": "years",
            "system": "http://unitsofmeasure.org",
            "code": "a"
          }
        } ]
      }, {
        "url": "https://www.netzwerk-universitaetsmedizin.de/fhir/StructureDefinition/ethnic-group",
        "valueCoding": {
          "system": "http://snomed.info/sct",
          "code": "14045001"
        }
      } ],
      "identifier": [ {
        "type": {
          "coding": [ {
            "system": "http://terminology.hl7.org/CodeSystem/v2-0203",
            "code": "MR"
          } ]
        },
        "system": "https://mein.krankenhaus.de/fhir/NamingSystem/patientId",
        "value": "synthetic_patient_622883444",
        "assigner": {
          "reference": "Organization/3a4f3433bce81181bad2d8e0b8fafccf7dc800bc06f29be73dcb38b750a48f9a"
        }
      } ],
      "birthDate": "1989-09-21"
    },
    "request": {
      "method": "POST",
      "url": "Patient",
      "ifNoneExist": "identifier=https://mein.krankenhaus.de/fhir/NamingSystem/patientId|a8049a191013251ddc3044a0a349c06ef544bdc4a2a07cc80ce470ce73b94eb8"
    }
  }, {
    "fullUrl": "Organization/3a4f3433bce81181bad2d8e0b8fafccf7dc800bc06f29be73dcb38b750a48f9a",
    "resource": {
      "resourceType": "Organization",
      "name": "Mein Krankenhaus"
    },
    "request": {
      "method": "POST",
      "url": "Organization",
      "ifNoneExist": "identifier=null|3a4f3433bce81181bad2d8e0b8fafccf7dc800bc06f29be73dcb38b750a48f9a"
    }
  }, {
    "fullUrl": "Encounter/9b494e3fc8734e35d6ac69d212bd41d19f0235e55a741f28dfbd47085e16e5d7",
    "resource": {
      "resourceType": "Encounter",
      "identifier": [ {
        "system": "https://mein.krankenhaus.de/fhir/NamingSystem/encounterId",
        "value": "b818241ae0e5b8d87c307b153d74ca5648f7f81a2ea616c9d474a4ef197189d0",
        "assigner": {
          "reference": "Organization/3a4f3433bce81181bad2d8e0b8fafccf7dc800bc06f29be73dcb38b750a48f9a"
        }
      } ],
      "status": "unknown",
      "class": {
        "system": "http://terminology.hl7.org/CodeSystem/v3-ActCode",
        "code": "IMP",
        "display": "inpatient encounter"
      },
      "subject": {
        "reference": "Patient/a8049a191013251ddc3044a0a349c06ef544bdc4a2a07cc80ce470ce73b94eb8"
      }
    },
    "request": {
      "method": "POST",
      "url": "Encounter",
      "ifNoneExist": "identifier=https://mein.krankenhaus.de/fhir/NamingSystem/encounterId|9b494e3fc8734e35d6ac69d212bd41d19f0235e55a741f28dfbd47085e16e5d7"
    }
  }, {
    "fullUrl": "Condition/75915afc8b433e9c87ba396f52d0540be9a98633b83141e5b83cfc89d6fef981",
    "resource": {
      "resourceType": "Condition",
      "meta": {
        "profile": [ "https://www.netzwerk-universitaetsmedizin.de/fhir/StructureDefinition/diagnosis-covid-19" ]
      },
      "identifier": [ {
        "system": "https://mein.krankenhaus.de/fhir/NamingSystem/conditionId",
        "value": "db0729a3681ed4878a0a915615af3ca65417d620ac62cdd30e4e176b884e36bf"
      } ],
      "clinicalStatus": {
        "coding": [ {
          "system": "http://terminology.hl7.org/CodeSystem/condition-clinical",
          "code": "active",
          "display": "Active"
        } ]
      },
      "verificationStatus": {
        "coding": [ {
          "system": "http://terminology.hl7.org/CodeSystem/condition-ver-status",
          "code": "confirmed",
          "display": "Confirmed"
        }, {
          "system": "http://snomed.info/sct",
          "code": "410605003",
          "display": "Confirmed present (qualifier value)"
        } ]
      },
      "category": [ {
        "coding": [ {
          "system": "http://snomed.info/sct",
          "code": "394807007",
          "display": "Infectious diseases (specialty) (qualifier value)"
        } ]
      } ],
      "code": {
        "coding": [ {
          "system": "http://snomed.info/sct",
          "code": "840539006",
          "display": "Disease caused by Severe acute respiratory syndrome coronavirus 2 (disorder)"
        } ]
      },
      "subject": {
        "reference": "Patient/a8049a191013251ddc3044a0a349c06ef544bdc4a2a07cc80ce470ce73b94eb8"
      },
      "encounter": {
        "reference": "Encounter/9b494e3fc8734e35d6ac69d212bd41d19f0235e55a741f28dfbd47085e16e5d7"
      },
      "_recordedDate": {
        "extension": [ {
          "url": "http://hl7.org/fhir/StructureDefinition/data-absent-reason",
          "valueCode": "unknown"
        } ]
      },
      "stage": [ {
        "summary": {
          "coding": [ {
            "system": "http://snomed.info/sct",
            "code": "277022003"
          } ]
        },
        "type": {
          "coding": [ {
            "system": "http://loinc.org",
            "code": "88859-4"
          } ]
        }
      } ]
    },
    "request": {
      "method": "POST",
      "url": "Condition",
      "ifNoneExist": "identifier=https://mein.krankenhaus.de/fhir/NamingSystem/conditionId|75915afc8b433e9c87ba396f52d0540be9a98633b83141e5b83cfc89d6fef981"
    }
  }, {
    "fullUrl": "Condition/4dce44ecf4ff6429de02f38a8878b021ae205c65a8bdb81219d4b865ff111c25",
    "resource": {
      "resourceType": "Condition",
      "meta": {
        "profile": [ "https://www.netzwerk-universitaetsmedizin.de/fhir/StructureDefinition/cardiovascular-diseases" ]
      },
      "identifier": [ {
        "system": "https://mein.krankenhaus.de/fhir/NamingSystem/conditionId",
        "value": "1b2159443f79ec06469c44ca47137375890c54f3e828ac76630cc1d7058d7814"
      } ],
      "clinicalStatus": {
        "coding": [ {
          "system": "http://terminology.hl7.org/CodeSystem/condition-clinical",
          "code": "active",
          "display": "Active"
        } ]
      },
      "verificationStatus": {
        "coding": [ {
          "system": "http://terminology.hl7.org/CodeSystem/condition-ver-status",
          "code": "confirmed",
          "display": "Confirmed"
        }, {
          "system": "http://snomed.info/sct",
          "code": "410605003",
          "display": "Confirmed present (qualifier value)"
        } ]
      },
      "category": [ {
        "coding": [ {
          "system": "http://snomed.info/sct",
          "code": "722414000",
          "display": "Vascular medicine (qualifier value)"
        } ]
      } ],
      "code": {
        "coding": [ {
          "system": "http://fhir.de/CodeSystem/dimdi/icd-10-gm",
          "version": "2021",
          "code": "I10.90"
        }, {
          "system": "http://snomed.info/sct",
          "code": "38341003"
        } ]
      },
      "subject": {
        "reference": "Patient/a8049a191013251ddc3044a0a349c06ef544bdc4a2a07cc80ce470ce73b94eb8"
      },
      "encounter": {
        "reference": "Encounter/9b494e3fc8734e35d6ac69d212bd41d19f0235e55a741f28dfbd47085e16e5d7"
      },
      "_recordedDate": {
        "extension": [ {
          "url": "http://hl7.org/fhir/StructureDefinition/data-absent-reason",
          "valueCode": "unknown"
        } ]
      }
    },
    "request": {
      "method": "POST",
      "url": "Condition",
      "ifNoneExist": "identifier=https://mein.krankenhaus.de/fhir/NamingSystem/conditionId|4dce44ecf4ff6429de02f38a8878b021ae205c65a8bdb81219d4b865ff111c25"
    }
  }, {
    "fullUrl": "Condition/917866d66679df2abc358cb349cbf3f3099574e85401b806842483165371ec7e",
    "resource": {
      "resourceType": "Condition",
      "meta": {
        "profile": [ "https://www.netzwerk-universitaetsmedizin.de/fhir/StructureDefinition/cardiovascular-diseases" ]
      },
      "identifier": [ {
        "system": "https://mein.krankenhaus.de/fhir/NamingSystem/conditionId",
        "value": "f13ca90df1e241a361d37870d0304d7358ea12011993fbcd3a09d21a7a459aac"
      } ],
      "clinicalStatus": {
        "coding": [ {
          "system": "http://terminology.hl7.org/CodeSystem/condition-clinical",
          "code": "active",
          "display": "Active"
        } ]
      },
      "verificationStatus": {
        "coding": [ {
          "system": "http://terminology.hl7.org/CodeSystem/condition-ver-status",
          "code": "confirmed",
          "display": "Confirmed"
        }, {
          "system": "http://snomed.info/sct",
          "code": "410605003",
          "display": "Confirmed present (qualifier value)"
        } ]
      },
      "category": [ {
        "coding": [ {
          "system": "http://snomed.info/sct",
          "code": "722414000",
          "display": "Vascular medicine (qualifier value)"
        } ]
      } ],
      "code": {
        "coding": [ {
          "system": "http://fhir.de/CodeSystem/dimdi/icd-10-gm",
          "version": "2021",
          "code": "I25.29"
        }, {
          "system": "http://snomed.info/sct",
          "code": "417662000:246090004=22298006"
        } ]
      },
      "subject": {
        "reference": "Patient/a8049a191013251ddc3044a0a349c06ef544bdc4a2a07cc80ce470ce73b94eb8"
      },
      "encounter": {
        "reference": "Encounter/9b494e3fc8734e35d6ac69d212bd41d19f0235e55a741f28dfbd47085e16e5d7"
      },
      "_recordedDate": {
        "extension": [ {
          "url": "http://hl7.org/fhir/StructureDefinition/data-absent-reason",
          "valueCode": "unknown"
        } ]
      }
    },
    "request": {
      "method": "POST",
      "url": "Condition",
      "ifNoneExist": "identifier=https://mein.krankenhaus.de/fhir/NamingSystem/conditionId|917866d66679df2abc358cb349cbf3f3099574e85401b806842483165371ec7e"
    }
  }, {
    "fullUrl": "Condition/956c2e1a6131ff6be2c704c44fb0a62a25d3a17b2bd280904f013c37e9291516",
    "resource": {
      "resourceType": "Condition",
      "meta": {
        "profile": [ "https://www.netzwerk-universitaetsmedizin.de/fhir/StructureDefinition/cardiovascular-diseases" ]
      },
      "identifier": [ {
        "system": "https://mein.krankenhaus.de/fhir/NamingSystem/conditionId",
        "value": "fe305f6552bd82d34459cd57400b227ea4246ca288d6888334b5d2dc55197b2b"
      } ],
      "verificationStatus": {
        "coding": [ {
          "system": "http://terminology.hl7.org/CodeSystem/condition-ver-status",
          "code": "refuted",
          "display": "Refuted"
        }, {
          "system": "http://snomed.info/sct",
          "code": "410594000",
          "display": "Definitely NOT present (qualifier value)"
        } ]
      },
      "category": [ {
        "coding": [ {
          "system": "http://snomed.info/sct",
          "code": "722414000",
          "display": "Vascular medicine (qualifier value)"
        } ]
      } ],
      "code": {
        "coding": [ {
          "system": "http://fhir.de/CodeSystem/dimdi/icd-10-gm",
          "version": "2021",
          "code": "I49.9"
        }, {
          "system": "http://snomed.info/sct",
          "code": "698247007"
        } ]
      },
      "subject": {
        "reference": "Patient/a8049a191013251ddc3044a0a349c06ef544bdc4a2a07cc80ce470ce73b94eb8"
      },
      "encounter": {
        "reference": "Encounter/9b494e3fc8734e35d6ac69d212bd41d19f0235e55a741f28dfbd47085e16e5d7"
      },
      "_recordedDate": {
        "extension": [ {
          "url": "http://hl7.org/fhir/StructureDefinition/data-absent-reason",
          "valueCode": "unknown"
        } ]
      }
    },
    "request": {
      "method": "POST",
      "url": "Condition",
      "ifNoneExist": "identifier=https://mein.krankenhaus.de/fhir/NamingSystem/conditionId|956c2e1a6131ff6be2c704c44fb0a62a25d3a17b2bd280904f013c37e9291516"
    }
  }, {
    "fullUrl": "Condition/f61b130871d6a20d35529ab9f1d47f5bb45b624499409463ee3eb978a57187f6",
    "resource": {
      "resourceType": "Condition",
      "meta": {
        "profile": [ "https://www.netzwerk-universitaetsmedizin.de/fhir/StructureDefinition/cardiovascular-diseases" ]
      },
      "identifier": [ {
        "system": "https://mein.krankenhaus.de/fhir/NamingSystem/conditionId",
        "value": "26acbb4f1d4421de037a882751c9ba8a0d12d8ee91aaf4ebaf57cb0eada37395"
      } ],
      "clinicalStatus": {
        "coding": [ {
          "system": "http://terminology.hl7.org/CodeSystem/condition-clinical",
          "code": "active",
          "display": "Active"
        } ]
      },
      "verificationStatus": {
        "coding": [ {
          "system": "http://terminology.hl7.org/CodeSystem/condition-ver-status",
          "code": "confirmed",
          "display": "Confirmed"
        }, {
          "system": "http://snomed.info/sct",
          "code": "410605003",
          "display": "Confirmed present (qualifier value)"
        } ]
      },
      "category": [ {
        "coding": [ {
          "system": "http://snomed.info/sct",
          "code": "722414000",
          "display": "Vascular medicine (qualifier value)"
        } ]
      } ],
      "code": {
        "coding": [ {
          "system": "http://fhir.de/CodeSystem/dimdi/icd-10-gm",
          "version": "2021",
          "code": "I50.9"
        }, {
          "system": "http://snomed.info/sct",
          "code": "84114007"
        } ]
      },
      "subject": {
        "reference": "Patient/a8049a191013251ddc3044a0a349c06ef544bdc4a2a07cc80ce470ce73b94eb8"
      },
      "encounter": {
        "reference": "Encounter/9b494e3fc8734e35d6ac69d212bd41d19f0235e55a741f28dfbd47085e16e5d7"
      },
      "_recordedDate": {
        "extension": [ {
          "url": "http://hl7.org/fhir/StructureDefinition/data-absent-reason",
          "valueCode": "unknown"
        } ]
      }
    },
    "request": {
      "method": "POST",
      "url": "Condition",
      "ifNoneExist": "identifier=https://mein.krankenhaus.de/fhir/NamingSystem/conditionId|f61b130871d6a20d35529ab9f1d47f5bb45b624499409463ee3eb978a57187f6"
    }
  }, {
    "fullUrl": "Condition/53af52b98ccd3e8c15a15b6d8b9f252f9179d80e053369f9223f2ab4194d5642",
    "resource": {
      "resourceType": "Condition",
      "meta": {
        "profile": [ "https://www.netzwerk-universitaetsmedizin.de/fhir/StructureDefinition/cardiovascular-diseases" ]
      },
      "identifier": [ {
        "system": "https://mein.krankenhaus.de/fhir/NamingSystem/conditionId",
        "value": "cbad58ed3771225ed06eef9db9efb3a2a8d096c42803c7154c2fc689d51f7bc7"
      } ],
      "verificationStatus": {
        "coding": [ {
          "system": "http://terminology.hl7.org/CodeSystem/condition-ver-status",
          "code": "refuted",
          "display": "Refuted"
        }, {
          "system": "http://snomed.info/sct",
          "code": "410594000",
          "display": "Definitely NOT present (qualifier value)"
        } ]
      },
      "category": [ {
        "coding": [ {
          "system": "http://snomed.info/sct",
          "code": "722414000",
          "display": "Vascular medicine (qualifier value)"
        } ]
      } ],
      "code": {
        "coding": [ {
          "system": "http://fhir.de/CodeSystem/dimdi/icd-10-gm",
          "version": "2021",
          "code": "I73.9"
        }, {
          "system": "http://snomed.info/sct",
          "code": "399957001"
        } ]
      },
      "subject": {
        "reference": "Patient/a8049a191013251ddc3044a0a349c06ef544bdc4a2a07cc80ce470ce73b94eb8"
      },
      "encounter": {
        "reference": "Encounter/9b494e3fc8734e35d6ac69d212bd41d19f0235e55a741f28dfbd47085e16e5d7"
      },
      "_recordedDate": {
        "extension": [ {
          "url": "http://hl7.org/fhir/StructureDefinition/data-absent-reason",
          "valueCode": "unknown"
        } ]
      }
    },
    "request": {
      "method": "POST",
      "url": "Condition",
      "ifNoneExist": "identifier=https://mein.krankenhaus.de/fhir/NamingSystem/conditionId|53af52b98ccd3e8c15a15b6d8b9f252f9179d80e053369f9223f2ab4194d5642"
    }
  }, {
    "fullUrl": "Condition/6cc5f6329cf6952bb8a43880913e54347f9abf77ed309fabbbfa0f10bf7b45d8",
    "resource": {
      "resourceType": "Condition",
      "meta": {
        "profile": [ "https://www.netzwerk-universitaetsmedizin.de/fhir/StructureDefinition/cardiovascular-diseases" ]
      },
      "identifier": [ {
        "system": "https://mein.krankenhaus.de/fhir/NamingSystem/conditionId",
        "value": "ce82cde47b3d1b6fa965f0881cc733c25e963c4052c89818769a8c2f688d2ae7"
      } ],
      "clinicalStatus": {
        "coding": [ {
          "system": "http://terminology.hl7.org/CodeSystem/condition-clinical",
          "code": "active",
          "display": "Active"
        } ]
      },
      "verificationStatus": {
        "coding": [ {
          "system": "http://terminology.hl7.org/CodeSystem/condition-ver-status",
          "code": "confirmed",
          "display": "Confirmed"
        }, {
          "system": "http://snomed.info/sct",
          "code": "410605003",
          "display": "Confirmed present (qualifier value)"
        } ]
      },
      "category": [ {
        "coding": [ {
          "system": "http://snomed.info/sct",
          "code": "722414000",
          "display": "Vascular medicine (qualifier value)"
        } ]
      } ],
      "code": {
        "coding": [ {
          "system": "http://fhir.de/CodeSystem/dimdi/icd-10-gm",
          "version": "2021",
          "code": "Z95.5"
        }, {
          "system": "http://snomed.info/sct",
          "code": "416940007:363589002=81266008"
        } ]
      },
      "subject": {
        "reference": "Patient/a8049a191013251ddc3044a0a349c06ef544bdc4a2a07cc80ce470ce73b94eb8"
      },
      "encounter": {
        "reference": "Encounter/9b494e3fc8734e35d6ac69d212bd41d19f0235e55a741f28dfbd47085e16e5d7"
      },
      "_recordedDate": {
        "extension": [ {
          "url": "http://hl7.org/fhir/StructureDefinition/data-absent-reason",
          "valueCode": "unknown"
        } ]
      }
    },
    "request": {
      "method": "POST",
      "url": "Condition",
      "ifNoneExist": "identifier=https://mein.krankenhaus.de/fhir/NamingSystem/conditionId|6cc5f6329cf6952bb8a43880913e54347f9abf77ed309fabbbfa0f10bf7b45d8"
    }
  }, {
    "fullUrl": "Condition/2365c08dacfc06be82f5180d3da2b38af4b61dffacb9b4dde7f4eb91443fd982",
    "resource": {
      "resourceType": "Condition",
      "meta": {
        "profile": [ "https://www.netzwerk-universitaetsmedizin.de/fhir/StructureDefinition/cardiovascular-diseases" ]
      },
      "modifierExtension": [ {
        "url": "https://www.netzwerk-universitaetsmedizin.de/fhir/StructureDefinition/uncertainty-of-presence",
        "valueCodeableConcept": {
          "coding": [ {
            "system": "http://snomed.info/sct",
            "code": "261665006",
            "display": "Unknown (qualifier value)"
          } ],
          "text": "Presence unknown."
        }
      } ],
      "identifier": [ {
        "system": "https://mein.krankenhaus.de/fhir/NamingSystem/conditionId",
        "value": "88132d0a9f1d602f88d5369d6f3c7000c541e80ab8243cdf166df730edcbda14"
      } ],
      "category": [ {
        "coding": [ {
          "system": "http://snomed.info/sct",
          "code": "722414000",
          "display": "Vascular medicine (qualifier value)"
        } ]
      } ],
      "code": {
        "coding": [ {
          "system": "http://fhir.de/CodeSystem/dimdi/icd-10-gm",
          "version": "2021",
          "code": "I25.1"
        }, {
          "system": "http://snomed.info/sct",
          "code": "53741008"
        } ]
      },
      "subject": {
        "reference": "Patient/a8049a191013251ddc3044a0a349c06ef544bdc4a2a07cc80ce470ce73b94eb8"
      },
      "encounter": {
        "reference": "Encounter/9b494e3fc8734e35d6ac69d212bd41d19f0235e55a741f28dfbd47085e16e5d7"
      },
      "_recordedDate": {
        "extension": [ {
          "url": "http://hl7.org/fhir/StructureDefinition/data-absent-reason",
          "valueCode": "unknown"
        } ]
      }
    },
    "request": {
      "method": "POST",
      "url": "Condition",
      "ifNoneExist": "identifier=https://mein.krankenhaus.de/fhir/NamingSystem/conditionId|2365c08dacfc06be82f5180d3da2b38af4b61dffacb9b4dde7f4eb91443fd982"
    }
  }, {
    "fullUrl": "Condition/be2931f59332df4910a3ac63c3ada6fd3beb18ce57a4fed35717835580c425a8",
    "resource": {
      "resourceType": "Condition",
      "meta": {
        "profile": [ "https://www.netzwerk-universitaetsmedizin.de/fhir/StructureDefinition/cardiovascular-diseases" ]
      },
      "modifierExtension": [ {
        "url": "https://www.netzwerk-universitaetsmedizin.de/fhir/StructureDefinition/uncertainty-of-presence",
        "valueCodeableConcept": {
          "coding": [ {
            "system": "http://snomed.info/sct",
            "code": "261665006",
            "display": "Unknown (qualifier value)"
          } ],
          "text": "Presence unknown."
        }
      } ],
      "identifier": [ {
        "system": "https://mein.krankenhaus.de/fhir/NamingSystem/conditionId",
        "value": "43b31762af0e40588a2e5247fb666550b1fd3f31072a34bad5dcca8044d95f0f"
      } ],
      "category": [ {
        "coding": [ {
          "system": "http://snomed.info/sct",
          "code": "722414000",
          "display": "Vascular medicine (qualifier value)"
        } ]
      } ],
      "code": {
        "coding": [ {
          "system": "http://fhir.de/CodeSystem/dimdi/icd-10-gm",
          "version": "2021",
          "code": "I65.2"
        }, {
          "system": "http://snomed.info/sct",
          "code": "64586002"
        } ]
      },
      "subject": {
        "reference": "Patient/a8049a191013251ddc3044a0a349c06ef544bdc4a2a07cc80ce470ce73b94eb8"
      },
      "encounter": {
        "reference": "Encounter/9b494e3fc8734e35d6ac69d212bd41d19f0235e55a741f28dfbd47085e16e5d7"
      },
      "_recordedDate": {
        "extension": [ {
          "url": "http://hl7.org/fhir/StructureDefinition/data-absent-reason",
          "valueCode": "unknown"
        } ]
      }
    },
    "request": {
      "method": "POST",
      "url": "Condition",
      "ifNoneExist": "identifier=https://mein.krankenhaus.de/fhir/NamingSystem/conditionId|be2931f59332df4910a3ac63c3ada6fd3beb18ce57a4fed35717835580c425a8"
    }
  }, {
    "fullUrl": "Condition/f831ee340bdd580cc9397845517554d23350a8a3859bc57f3dac6b1c7627b055",
    "resource": {
      "resourceType": "Condition",
      "meta": {
        "profile": [ "https://www.netzwerk-universitaetsmedizin.de/fhir/StructureDefinition/cardiovascular-diseases" ]
      },
      "modifierExtension": [ {
        "url": "https://www.netzwerk-universitaetsmedizin.de/fhir/StructureDefinition/uncertainty-of-presence",
        "valueCodeableConcept": {
          "coding": [ {
            "system": "http://snomed.info/sct",
            "code": "261665006",
            "display": "Unknown (qualifier value)"
          } ],
          "text": "Presence unknown."
        }
      } ],
      "identifier": [ {
        "system": "https://mein.krankenhaus.de/fhir/NamingSystem/conditionId",
        "value": "ca484c0e53d062e47bf3693e12f1ebe64d059dc1ad224afe822f835e25256a5d"
      } ],
      "category": [ {
        "coding": [ {
          "system": "http://snomed.info/sct",
          "code": "722414000",
          "display": "Vascular medicine (qualifier value)"
        } ]
      } ],
      "code": {
        "coding": [ {
          "system": "http://fhir.de/CodeSystem/dimdi/icd-10-gm",
          "version": "2021",
          "code": "I51.6"
        }, {
          "system": "http://snomed.info/sct",
          "code": "49601007"
        } ]
      },
      "subject": {
        "reference": "Patient/a8049a191013251ddc3044a0a349c06ef544bdc4a2a07cc80ce470ce73b94eb8"
      },
      "encounter": {
        "reference": "Encounter/9b494e3fc8734e35d6ac69d212bd41d19f0235e55a741f28dfbd47085e16e5d7"
      },
      "_recordedDate": {
        "extension": [ {
          "url": "http://hl7.org/fhir/StructureDefinition/data-absent-reason",
          "valueCode": "unknown"
        } ]
      }
    },
    "request": {
      "method": "POST",
      "url": "Condition",
      "ifNoneExist": "identifier=https://mein.krankenhaus.de/fhir/NamingSystem/conditionId|f831ee340bdd580cc9397845517554d23350a8a3859bc57f3dac6b1c7627b055"
    }
  }, {
    "fullUrl": "Condition/26276a6dc715f8fbc0e8488a3733f7388ae0413b0080e867c7c909e565853eab",
    "resource": {
      "resourceType": "Condition",
      "meta": {
        "profile": [ "https://www.netzwerk-universitaetsmedizin.de/fhir/StructureDefinition/chronic-liver-diseases" ]
      },
      "identifier": [ {
        "system": "https://mein.krankenhaus.de/fhir/NamingSystem/conditionId",
        "value": "7f14f36459ac0c0329fa3385a6dd91e3ab0bc3a8e39a651e53fc52152b0f5147"
      } ],
      "verificationStatus": {
        "coding": [ {
          "system": "http://terminology.hl7.org/CodeSystem/condition-ver-status",
          "code": "refuted",
          "display": "Refuted"
        }, {
          "system": "http://snomed.info/sct",
          "code": "410594000",
          "display": "Definitely NOT present (qualifier value)"
        } ]
      },
      "category": [ {
        "coding": [ {
          "system": "http://snomed.info/sct",
          "code": "408472002",
          "display": "Hepatology (qualifier value)"
        } ]
      } ],
      "code": {
        "coding": [ {
          "system": "http://fhir.de/CodeSystem/dimdi/icd-10-gm",
          "version": "2021",
          "code": "K76.0"
        }, {
          "system": "http://snomed.info/sct",
          "code": "197321007"
        } ]
      },
      "subject": {
        "reference": "Patient/a8049a191013251ddc3044a0a349c06ef544bdc4a2a07cc80ce470ce73b94eb8"
      },
      "encounter": {
        "reference": "Encounter/9b494e3fc8734e35d6ac69d212bd41d19f0235e55a741f28dfbd47085e16e5d7"
      },
      "_recordedDate": {
        "extension": [ {
          "url": "http://hl7.org/fhir/StructureDefinition/data-absent-reason",
          "valueCode": "unknown"
        } ]
      }
    },
    "request": {
      "method": "POST",
      "url": "Condition",
      "ifNoneExist": "identifier=https://mein.krankenhaus.de/fhir/NamingSystem/conditionId|26276a6dc715f8fbc0e8488a3733f7388ae0413b0080e867c7c909e565853eab"
    }
  }, {
    "fullUrl": "Condition/48ba851cf40b22da708229269449aebfb880a73e0275cd0681ffd9f0b0c6dc49",
    "resource": {
      "resourceType": "Condition",
      "meta": {
        "profile": [ "https://www.netzwerk-universitaetsmedizin.de/fhir/StructureDefinition/chronic-liver-diseases" ]
      },
      "identifier": [ {
        "system": "https://mein.krankenhaus.de/fhir/NamingSystem/conditionId",
        "value": "630db04e375775db71fe5f222aed65aeb2bf91095e0c3a6512af7a1dab5f2017"
      } ],
      "verificationStatus": {
        "coding": [ {
          "system": "http://terminology.hl7.org/CodeSystem/condition-ver-status",
          "code": "refuted",
          "display": "Refuted"
        }, {
          "system": "http://snomed.info/sct",
          "code": "410594000",
          "display": "Definitely NOT present (qualifier value)"
        } ]
      },
      "category": [ {
        "coding": [ {
          "system": "http://snomed.info/sct",
          "code": "408472002",
          "display": "Hepatology (qualifier value)"
        } ]
      } ],
      "code": {
        "coding": [ {
          "system": "http://fhir.de/CodeSystem/dimdi/icd-10-gm",
          "version": "2021",
          "code": "K74.6"
        }, {
          "system": "http://snomed.info/sct",
          "code": "19943007"
        } ]
      },
      "subject": {
        "reference": "Patient/a8049a191013251ddc3044a0a349c06ef544bdc4a2a07cc80ce470ce73b94eb8"
      },
      "encounter": {
        "reference": "Encounter/9b494e3fc8734e35d6ac69d212bd41d19f0235e55a741f28dfbd47085e16e5d7"
      },
      "_recordedDate": {
        "extension": [ {
          "url": "http://hl7.org/fhir/StructureDefinition/data-absent-reason",
          "valueCode": "unknown"
        } ]
      }
    },
    "request": {
      "method": "POST",
      "url": "Condition",
      "ifNoneExist": "identifier=https://mein.krankenhaus.de/fhir/NamingSystem/conditionId|48ba851cf40b22da708229269449aebfb880a73e0275cd0681ffd9f0b0c6dc49"
    }
  }, {
    "fullUrl": "Condition/f9fef74569077fad854f13de32e76789ccb074e24ded5a47c89bfddd7d27f4e7",
    "resource": {
      "resourceType": "Condition",
      "meta": {
        "profile": [ "https://www.netzwerk-universitaetsmedizin.de/fhir/StructureDefinition/chronic-liver-diseases" ]
      },
      "identifier": [ {
        "system": "https://mein.krankenhaus.de/fhir/NamingSystem/conditionId",
        "value": "df699f5f0055f6b08dd21ddf244bbf234ff33c622fa8ec4949df5d4835c1a670"
      } ],
      "verificationStatus": {
        "coding": [ {
          "system": "http://terminology.hl7.org/CodeSystem/condition-ver-status",
          "code": "refuted",
          "display": "Refuted"
        }, {
          "system": "http://snomed.info/sct",
          "code": "410594000",
          "display": "Definitely NOT present (qualifier value)"
        } ]
      },
      "category": [ {
        "coding": [ {
          "system": "http://snomed.info/sct",
          "code": "408472002",
          "display": "Hepatology (qualifier value)"
        } ]
      } ],
      "code": {
        "coding": [ {
          "system": "http://fhir.de/CodeSystem/dimdi/icd-10-gm",
          "version": "2021",
          "code": "B18.9"
        }, {
          "system": "http://snomed.info/sct",
          "code": "10295004"
        } ]
      },
      "subject": {
        "reference": "Patient/a8049a191013251ddc3044a0a349c06ef544bdc4a2a07cc80ce470ce73b94eb8"
      },
      "encounter": {
        "reference": "Encounter/9b494e3fc8734e35d6ac69d212bd41d19f0235e55a741f28dfbd47085e16e5d7"
      },
      "_recordedDate": {
        "extension": [ {
          "url": "http://hl7.org/fhir/StructureDefinition/data-absent-reason",
          "valueCode": "unknown"
        } ]
      }
    },
    "request": {
      "method": "POST",
      "url": "Condition",
      "ifNoneExist": "identifier=https://mein.krankenhaus.de/fhir/NamingSystem/conditionId|f9fef74569077fad854f13de32e76789ccb074e24ded5a47c89bfddd7d27f4e7"
    }
  }, {
    "fullUrl": "Condition/5fe291fb585cd21f1e811d9410108162582ca820ad2417697d5a199121ed3ed6",
    "resource": {
      "resourceType": "Condition",
      "meta": {
        "profile": [ "https://www.netzwerk-universitaetsmedizin.de/fhir/StructureDefinition/chronic-liver-diseases" ]
      },
      "identifier": [ {
        "system": "https://mein.krankenhaus.de/fhir/NamingSystem/conditionId",
        "value": "144cb4e3db5248707e4d2820485b4b3780e44e8035e2e1e291a69c5dde05de91"
      } ],
      "clinicalStatus": {
        "coding": [ {
          "system": "http://terminology.hl7.org/CodeSystem/condition-clinical",
          "code": "active",
          "display": "Active"
        } ]
      },
      "verificationStatus": {
        "coding": [ {
          "system": "http://terminology.hl7.org/CodeSystem/condition-ver-status",
          "code": "confirmed",
          "display": "Confirmed"
        }, {
          "system": "http://snomed.info/sct",
          "code": "410605003",
          "display": "Confirmed present (qualifier value)"
        } ]
      },
      "category": [ {
        "coding": [ {
          "system": "http://snomed.info/sct",
          "code": "408472002",
          "display": "Hepatology (qualifier value)"
        } ]
      } ],
      "code": {
        "coding": [ {
          "system": "http://snomed.info/sct",
          "code": "235890007"
        } ]
      },
      "subject": {
        "reference": "Patient/a8049a191013251ddc3044a0a349c06ef544bdc4a2a07cc80ce470ce73b94eb8"
      },
      "encounter": {
        "reference": "Encounter/9b494e3fc8734e35d6ac69d212bd41d19f0235e55a741f28dfbd47085e16e5d7"
      },
      "_recordedDate": {
        "extension": [ {
          "url": "http://hl7.org/fhir/StructureDefinition/data-absent-reason",
          "valueCode": "unknown"
        } ]
      }
    },
    "request": {
      "method": "POST",
      "url": "Condition",
      "ifNoneExist": "identifier=https://mein.krankenhaus.de/fhir/NamingSystem/conditionId|5fe291fb585cd21f1e811d9410108162582ca820ad2417697d5a199121ed3ed6"
    }
  }, {
    "fullUrl": "Condition/86363873aec3fbdd46a13892046d2815e40ae9a63ab739e10ecefa925e986186",
    "resource": {
      "resourceType": "Condition",
      "meta": {
        "profile": [ "https://www.netzwerk-universitaetsmedizin.de/fhir/StructureDefinition/chronic-liver-diseases" ]
      },
      "identifier": [ {
        "system": "https://mein.krankenhaus.de/fhir/NamingSystem/conditionId",
        "value": "6bebbc49dc7dd642aabc42013ab922a64f37c0e0e816d412a01cb9dbee753321"
      } ],
      "clinicalStatus": {
        "coding": [ {
          "system": "http://terminology.hl7.org/CodeSystem/condition-clinical",
          "code": "active",
          "display": "Active"
        } ]
      },
      "verificationStatus": {
        "coding": [ {
          "system": "http://terminology.hl7.org/CodeSystem/condition-ver-status",
          "code": "confirmed",
          "display": "Confirmed"
        }, {
          "system": "http://snomed.info/sct",
          "code": "410605003",
          "display": "Confirmed present (qualifier value)"
        } ]
      },
      "category": [ {
        "coding": [ {
          "system": "http://snomed.info/sct",
          "code": "408472002",
          "display": "Hepatology (qualifier value)"
        } ]
      } ],
      "code": {
        "coding": [ {
          "system": "http://fhir.de/CodeSystem/dimdi/icd-10-gm",
          "version": "2021",
          "code": "K76.9"
        }, {
          "system": "http://snomed.info/sct",
          "code": "328383001"
        } ]
      },
      "subject": {
        "reference": "Patient/a8049a191013251ddc3044a0a349c06ef544bdc4a2a07cc80ce470ce73b94eb8"
      },
      "encounter": {
        "reference": "Encounter/9b494e3fc8734e35d6ac69d212bd41d19f0235e55a741f28dfbd47085e16e5d7"
      },
      "_recordedDate": {
        "extension": [ {
          "url": "http://hl7.org/fhir/StructureDefinition/data-absent-reason",
          "valueCode": "unknown"
        } ]
      }
    },
    "request": {
      "method": "POST",
      "url": "Condition",
      "ifNoneExist": "identifier=https://mein.krankenhaus.de/fhir/NamingSystem/conditionId|86363873aec3fbdd46a13892046d2815e40ae9a63ab739e10ecefa925e986186"
    }
  }, {
    "fullUrl": "Condition/4658fca7b11a55d5f8368cee4a4b1c12b8d1df3b1084b3fdb2e9656c79b0b81e",
    "resource": {
      "resourceType": "Condition",
      "meta": {
        "profile": [ "https://www.netzwerk-universitaetsmedizin.de/fhir/StructureDefinition/human-immunodeficiency-virus-infection" ]
      },
      "modifierExtension": [ {
        "url": "https://www.netzwerk-universitaetsmedizin.de/fhir/StructureDefinition/uncertainty-of-presence",
        "valueCodeableConcept": {
          "coding": [ {
            "system": "http://snomed.info/sct",
            "code": "261665006",
            "display": "Unknown (qualifier value)"
          } ],
          "text": "Presence unknown."
        }
      } ],
      "identifier": [ {
        "system": "https://mein.krankenhaus.de/fhir/NamingSystem/conditionId",
        "value": "3ed4960c16a706814ad6a2e8a814f484b10ad32920604abebaf124e161abfa39"
      } ],
      "category": [ {
        "coding": [ {
          "system": "http://snomed.info/sct",
          "code": "394807007",
          "display": "Infectious diseases (specialty) (qualifier value)"
        } ]
      } ],
      "code": {
        "coding": [ {
          "system": "http://fhir.de/CodeSystem/dimdi/icd-10-gm",
          "version": "2021",
          "code": "B24"
        }, {
          "system": "http://snomed.info/sct",
          "code": "86406008"
        } ]
      },
      "subject": {
        "reference": "Patient/a8049a191013251ddc3044a0a349c06ef544bdc4a2a07cc80ce470ce73b94eb8"
      },
      "encounter": {
        "reference": "Encounter/9b494e3fc8734e35d6ac69d212bd41d19f0235e55a741f28dfbd47085e16e5d7"
      },
      "_recordedDate": {
        "extension": [ {
          "url": "http://hl7.org/fhir/StructureDefinition/data-absent-reason",
          "valueCode": "unknown"
        } ]
      }
    },
    "request": {
      "method": "POST",
      "url": "Condition",
      "ifNoneExist": "identifier=https://mein.krankenhaus.de/fhir/NamingSystem/conditionId|4658fca7b11a55d5f8368cee4a4b1c12b8d1df3b1084b3fdb2e9656c79b0b81e"
    }
  }, {
    "fullUrl": "Condition/107fe5ac09064a595854ae6f4b9f23f12906df8beedec37b844522ba23ffd34b",
    "resource": {
      "resourceType": "Condition",
      "meta": {
        "profile": [ "https://www.netzwerk-universitaetsmedizin.de/fhir/StructureDefinition/diabetes-mellitus" ]
      },
      "identifier": [ {
        "system": "https://mein.krankenhaus.de/fhir/NamingSystem/conditionId",
        "value": "6457d7ab4ff6cd47767eb0b103f60f9f8c0067a5c3861e5f58efffa3503ecf92"
      } ],
      "verificationStatus": {
        "coding": [ {
          "system": "http://terminology.hl7.org/CodeSystem/condition-ver-status",
          "code": "confirmed",
          "display": "Confirmed"
        }, {
          "system": "http://snomed.info/sct",
          "code": "410605003",
          "display": "Confirmed present (qualifier value)"
        } ]
      },
      "category": [ {
        "coding": [ {
          "system": "http://snomed.info/sct",
          "code": "408475000",
          "display": "Diabetic medicine (qualifier value)"
        } ]
      } ],
      "code": {
        "coding": [ {
          "system": "http://fhir.de/CodeSystem/dimdi/icd-10-gm",
          "version": "2021",
          "code": "E11.9"
        }, {
          "system": "http://snomed.info/sct",
          "code": "44054006"
        } ]
      },
      "subject": {
        "reference": "Patient/a8049a191013251ddc3044a0a349c06ef544bdc4a2a07cc80ce470ce73b94eb8"
      },
      "encounter": {
        "reference": "Encounter/9b494e3fc8734e35d6ac69d212bd41d19f0235e55a741f28dfbd47085e16e5d7"
      },
      "_recordedDate": {
        "extension": [ {
          "url": "http://hl7.org/fhir/StructureDefinition/data-absent-reason",
          "valueCode": "unknown"
        } ]
      }
    },
    "request": {
      "method": "POST",
      "url": "Condition",
      "ifNoneExist": "identifier=https://mein.krankenhaus.de/fhir/NamingSystem/conditionId|107fe5ac09064a595854ae6f4b9f23f12906df8beedec37b844522ba23ffd34b"
    }
  }, {
    "fullUrl": "Condition/fd39f589ea110f03e8bacb21b66f0a43c5883e9607c03635981005d7e5efe091",
    "resource": {
      "resourceType": "Condition",
      "meta": {
        "profile": [ "https://www.netzwerk-universitaetsmedizin.de/fhir/StructureDefinition/gastrointestinal-ulcers" ]
      },
      "identifier": [ {
        "system": "https://mein.krankenhaus.de/fhir/NamingSystem/conditionId",
        "value": "ba490cf7292806bfa261edfa0801185e398b432a98b5e1fedb4c795242cf0517"
      } ],
      "clinicalStatus": {
        "coding": [ {
          "system": "http://terminology.hl7.org/CodeSystem/condition-clinical",
          "code": "active",
          "display": "Active"
        } ]
      },
      "verificationStatus": {
        "coding": [ {
          "system": "http://terminology.hl7.org/CodeSystem/condition-ver-status",
          "code": "confirmed",
          "display": "Confirmed"
        }, {
          "system": "http://snomed.info/sct",
          "code": "410605003",
          "display": "Confirmed present (qualifier value)"
        } ]
      },
      "category": [ {
        "coding": [ {
          "system": "http://snomed.info/sct",
          "code": "394584008",
          "display": "Gastroenterology (qualifier value))"
        } ]
      } ],
      "code": {
        "coding": [ {
          "system": "http://fhir.de/CodeSystem/dimdi/icd-10-gm",
          "version": "2021",
          "code": "K28"
        }, {
          "system": "http://snomed.info/sct",
          "code": "40845000"
        } ]
      },
      "subject": {
        "reference": "Patient/a8049a191013251ddc3044a0a349c06ef544bdc4a2a07cc80ce470ce73b94eb8"
      },
      "encounter": {
        "reference": "Encounter/9b494e3fc8734e35d6ac69d212bd41d19f0235e55a741f28dfbd47085e16e5d7"
      },
      "_recordedDate": {
        "extension": [ {
          "url": "http://hl7.org/fhir/StructureDefinition/data-absent-reason",
          "valueCode": "unknown"
        } ]
      }
    },
    "request": {
      "method": "POST",
      "url": "Condition",
      "ifNoneExist": "identifier=https://mein.krankenhaus.de/fhir/NamingSystem/conditionId|fd39f589ea110f03e8bacb21b66f0a43c5883e9607c03635981005d7e5efe091"
    }
  }, {
    "fullUrl": "Observation/36811c758a4be685dab619753c9609c3b558d56c74e68cc8afc2447fd1006b06",
    "resource": {
      "resourceType": "Observation",
      "meta": {
        "profile": [ "https://www.netzwerk-universitaetsmedizin.de/fhir/StructureDefinition/smoking-status" ]
      },
      "identifier": [ {
        "system": "https://mein.krankenhaus.de/fhir/NamingSystem/observationId",
        "value": "72b65d3bcf5cfb024b75c9d35ad33c81b77ba5826bd06ab7258ca8a7fb703729"
      } ],
      "status": "final",
      "category": [ {
        "coding": [ {
          "system": "http://terminology.hl7.org/CodeSystem/observation-category",
          "code": "social-history",
          "display": "Social History"
        } ]
      } ],
      "code": {
        "coding": [ {
          "system": "http://loinc.org",
          "code": "72166-2"
        } ]
      },
      "subject": {
        "reference": "Patient/a8049a191013251ddc3044a0a349c06ef544bdc4a2a07cc80ce470ce73b94eb8"
      },
      "encounter": {
        "reference": "Encounter/9b494e3fc8734e35d6ac69d212bd41d19f0235e55a741f28dfbd47085e16e5d7"
      },
      "_effectiveDateTime": {
        "extension": [ {
          "url": "http://hl7.org/fhir/StructureDefinition/data-absent-reason",
          "valueCode": "unknown"
        } ]
      },
      "valueCodeableConcept": {
        "coding": [ {
          "system": "http://loinc.org",
          "code": "LA15920-4"
        } ]
      }
    },
    "request": {
      "method": "POST",
      "url": "Observation",
      "ifNoneExist": "identifier=https://mein.krankenhaus.de/fhir/NamingSystem/observationId|36811c758a4be685dab619753c9609c3b558d56c74e68cc8afc2447fd1006b06"
    }
  }, {
    "fullUrl": "Procedure/64603786293dc57b7ebc82a95ac7b5552985910b8018a4dcf151e926dfab975d",
    "resource": {
      "resourceType": "Procedure",
      "meta": {
        "profile": [ "https://www.netzwerk-universitaetsmedizin.de/fhir/StructureDefinition/respiratory-therapies" ]
      },
      "identifier": [ {
        "system": "https://mein.krankenhaus.de/fhir/NamingSystem/procedureId",
        "value": "75d3d08f2513d4f5251a9a55dd85e0f9c0f71a7fb36e98448e3fc748f006e5cc"
      } ],
      "status": "unknown",
      "category": {
        "coding": [ {
          "system": "http://snomed.info/sct",
          "code": "277132007",
          "display": "Therapeutic procedure (procedure)"
        } ]
      },
      "code": {
        "coding": [ {
          "system": "http://snomed.info/sct",
          "code": "53950000"
        } ]
      },
      "subject": {
        "reference": "Patient/a8049a191013251ddc3044a0a349c06ef544bdc4a2a07cc80ce470ce73b94eb8"
      },
      "encounter": {
        "reference": "Encounter/9b494e3fc8734e35d6ac69d212bd41d19f0235e55a741f28dfbd47085e16e5d7"
      },
      "_performedDateTime": {
        "extension": [ {
          "url": "http://hl7.org/fhir/StructureDefinition/data-absent-reason",
          "valueCode": "unknown"
        } ]
      }
    },
    "request": {
      "method": "POST",
      "url": "Procedure",
      "ifNoneExist": "identifier=https://mein.krankenhaus.de/fhir/NamingSystem/procedureId|64603786293dc57b7ebc82a95ac7b5552985910b8018a4dcf151e926dfab975d"
    }
  }, {
    "fullUrl": "Immunization/9a1367967e121511f823c25d53004c4a291edf4279cfa62b0a408d4eb13a1b54",
    "resource": {
      "resourceType": "Immunization",
      "meta": {
        "profile": [ "https://www.netzwerk-universitaetsmedizin.de/fhir/StructureDefinition/immunization" ]
      },
      "identifier": [ {
        "system": "https://mein.krankenhaus.de/fhir/NamingSystem/immunizationId",
        "value": "2e0e0e7bd45aae79393e9388dd58a9ec219a69459960147406bea248b2d4af8b"
      } ],
      "status": "completed",
      "vaccineCode": {
        "coding": [ {
          "system": "http://snomed.info/sct",
          "code": "836377006"
        } ]
      },
      "patient": {
        "reference": "Patient/a8049a191013251ddc3044a0a349c06ef544bdc4a2a07cc80ce470ce73b94eb8"
      },
      "encounter": {
        "reference": "Encounter/9b494e3fc8734e35d6ac69d212bd41d19f0235e55a741f28dfbd47085e16e5d7"
      },
      "occurrenceDateTime": "2020-10-09",
      "protocolApplied": [ {
        "targetDisease": [ {
          "coding": [ {
            "system": "http://snomed.info/sct",
            "code": "6142004"
          } ]
        } ],
        "_doseNumberString": {
          "extension": [ {
            "url": "http://hl7.org/fhir/StructureDefinition/data-absent-reason",
            "valueCode": "unknown"
          } ]
        }
      } ]
    },
    "request": {
      "method": "POST",
      "url": "Immunization",
      "ifNoneExist": "identifier=https://mein.krankenhaus.de/fhir/NamingSystem/immunizationId|9a1367967e121511f823c25d53004c4a291edf4279cfa62b0a408d4eb13a1b54"
    }
  }, {
    "fullUrl": "Immunization/825b6a527bb31c9454d404986b56a765fb6d406bb83cf8f7dbd6bbd8b55aea2d",
    "resource": {
      "resourceType": "Immunization",
      "meta": {
        "profile": [ "https://www.netzwerk-universitaetsmedizin.de/fhir/StructureDefinition/immunization" ]
      },
      "identifier": [ {
        "system": "https://mein.krankenhaus.de/fhir/NamingSystem/immunizationId",
        "value": "df6ac7bc82130195d2f4ed869391850d3983043af4b36936170b7d17ce3d7c09"
      } ],
      "status": "completed",
      "vaccineCode": {
        "coding": [ {
          "system": "http://snomed.info/sct",
          "code": "836398006"
        } ]
      },
      "patient": {
        "reference": "Patient/a8049a191013251ddc3044a0a349c06ef544bdc4a2a07cc80ce470ce73b94eb8"
      },
      "encounter": {
        "reference": "Encounter/9b494e3fc8734e35d6ac69d212bd41d19f0235e55a741f28dfbd47085e16e5d7"
      },
      "occurrenceDateTime": "2020-01-10",
      "protocolApplied": [ {
        "targetDisease": [ {
          "coding": [ {
            "system": "http://snomed.info/sct",
            "code": "16814004"
          } ]
        } ],
        "_doseNumberString": {
          "extension": [ {
            "url": "http://hl7.org/fhir/StructureDefinition/data-absent-reason",
            "valueCode": "unknown"
          } ]
        }
      } ]
    },
    "request": {
      "method": "POST",
      "url": "Immunization",
      "ifNoneExist": "identifier=https://mein.krankenhaus.de/fhir/NamingSystem/immunizationId|825b6a527bb31c9454d404986b56a765fb6d406bb83cf8f7dbd6bbd8b55aea2d"
    }
  }, {
    "fullUrl": "Immunization/12ba4da03cd592a36ef58bfbdbef85c271d20d5fc7f7f6537807e54cdfb4184c",
    "resource": {
      "resourceType": "Immunization",
      "meta": {
        "profile": [ "https://www.netzwerk-universitaetsmedizin.de/fhir/StructureDefinition/immunization" ]
      },
      "identifier": [ {
        "system": "https://mein.krankenhaus.de/fhir/NamingSystem/immunizationId",
        "value": "5691ef1a40be1675f70e2fcf210846665f901d6d884e8e90e073273c38a81895"
      } ],
      "status": "completed",
      "vaccineCode": {
        "coding": [ {
          "system": "http://snomed.info/sct",
          "code": "836402002"
        } ]
      },
      "patient": {
        "reference": "Patient/a8049a191013251ddc3044a0a349c06ef544bdc4a2a07cc80ce470ce73b94eb8"
      },
      "encounter": {
        "reference": "Encounter/9b494e3fc8734e35d6ac69d212bd41d19f0235e55a741f28dfbd47085e16e5d7"
      },
      "occurrenceDateTime": "2020-08-25",
      "protocolApplied": [ {
        "targetDisease": [ {
          "coding": [ {
            "system": "http://snomed.info/sct",
            "code": "56717001"
          } ]
        } ],
        "_doseNumberString": {
          "extension": [ {
            "url": "http://hl7.org/fhir/StructureDefinition/data-absent-reason",
            "valueCode": "unknown"
          } ]
        }
      } ]
    },
    "request": {
      "method": "POST",
      "url": "Immunization",
      "ifNoneExist": "identifier=https://mein.krankenhaus.de/fhir/NamingSystem/immunizationId|12ba4da03cd592a36ef58bfbdbef85c271d20d5fc7f7f6537807e54cdfb4184c"
    }
  }, {
    "fullUrl": "Consent/1188d2c74b5ddbc8fc8a04f033984853f7af39cbbb993c297f0033ccb3d0ffd1",
    "resource": {
      "resourceType": "Consent",
      "meta": {
        "profile": [ "https://www.netzwerk-universitaetsmedizin.de/fhir/StructureDefinition/do-not-resuscitate-order" ]
      },
      "identifier": [ {
        "system": "https://mein.krankenhaus.de/fhir/NamingSystem/consentId",
        "value": "f6b3b46f06b4cbf4f147e924383f26366eaae000c24eb49bb98879e989d015d7"
      } ],
      "status": "active",
      "scope": {
        "coding": [ {
          "system": "http://terminology.hl7.org/CodeSystem/consentscope",
          "code": "adr",
          "display": "Advanced Care Directive"
        } ]
      },
      "category": [ {
        "coding": [ {
          "system": "http://terminology.hl7.org/CodeSystem/consentcategorycodes",
          "code": "dnr",
          "display": "Do Not Resuscitate"
        } ]
      } ],
      "patient": {
        "reference": "Patient/a8049a191013251ddc3044a0a349c06ef544bdc4a2a07cc80ce470ce73b94eb8"
      },
      "policy": [ {
        "uri": "https://www.aerzteblatt.de/archiv/65440/DNR-Anordnungen-Das-fehlende-Bindeglied"
      } ],
      "provision": {
        "code": [ {
          "coding": [ {
            "system": "http://snomed.info/sct",
            "code": "304252001"
          } ]
        } ]
      }
    },
    "request": {
      "method": "POST",
      "url": "Consent",
      "ifNoneExist": "identifier=https://mein.krankenhaus.de/fhir/NamingSystem/consentId|1188d2c74b5ddbc8fc8a04f033984853f7af39cbbb993c297f0033ccb3d0ffd1"
    }
  }, {
    "fullUrl": "Observation/f07da7081fbf1cb08573e6c0685920e38ac7149b29a1275b3e8f62d7ae21d69f",
    "resource": {
      "resourceType": "Observation",
      "meta": {
        "profile": [ "https://www.netzwerk-universitaetsmedizin.de/fhir/StructureDefinition/sex-assigned-at-birth" ]
      },
      "identifier": [ {
        "system": "https://mein.krankenhaus.de/fhir/NamingSystem/observationId",
        "value": "e1bd1455fb79f9bc58dc7b7c6a21fde3f748c137054eb1717c9b423ac7db3885"
      } ],
      "status": "final",
      "category": [ {
        "coding": [ {
          "system": "http://terminology.hl7.org/CodeSystem/observation-category",
          "code": "social-history",
          "display": "Social History"
        } ]
      } ],
      "code": {
        "coding": [ {
          "system": "http://loinc.org",
          "code": "76689-9"
        } ]
      },
      "subject": {
        "reference": "Patient/a8049a191013251ddc3044a0a349c06ef544bdc4a2a07cc80ce470ce73b94eb8"
      },
      "encounter": {
        "reference": "Encounter/9b494e3fc8734e35d6ac69d212bd41d19f0235e55a741f28dfbd47085e16e5d7"
      },
      "_effectiveDateTime": {
        "extension": [ {
          "url": "http://hl7.org/fhir/StructureDefinition/data-absent-reason",
          "valueCode": "unknown"
        } ]
      },
      "valueCodeableConcept": {
        "coding": [ {
          "system": "http://fhir.de/CodeSystem/gender-amtlich-de",
          "code": "D"
        } ]
      }
    },
    "request": {
      "method": "POST",
      "url": "Observation",
      "ifNoneExist": "identifier=https://mein.krankenhaus.de/fhir/NamingSystem/observationId|f07da7081fbf1cb08573e6c0685920e38ac7149b29a1275b3e8f62d7ae21d69f"
    }
  }, {
    "fullUrl": "Observation/aca0a3fcd70e27b859424ff05bb400494410064fa49294d856374ffe3393d71d",
    "resource": {
      "resourceType": "Observation",
      "meta": {
        "profile": [ "https://www.netzwerk-universitaetsmedizin.de/fhir/StructureDefinition/body-weight" ]
      },
      "identifier": [ {
        "type": {
          "coding": [ {
            "system": "http://terminology.hl7.org/CodeSystem/v2-0203",
            "code": "OBI",
            "display": "Observation Instance Identifier"
          } ]
        },
        "system": "https://mein.krankenhaus.de/fhir/NamingSystem/observationId",
        "value": "5c0cd65f0cee525251fee431dc7770f63a961bc04efb1b6661f1b95b404d9917",
        "assigner": {
          "reference": "Organization/3a4f3433bce81181bad2d8e0b8fafccf7dc800bc06f29be73dcb38b750a48f9a"
        }
      } ],
      "status": "final",
      "category": [ {
        "coding": [ {
          "system": "http://terminology.hl7.org/CodeSystem/observation-category",
          "code": "vital-signs",
          "display": "Vital Signs"
        } ]
      } ],
      "code": {
        "coding": [ {
          "system": "http://loinc.org",
          "code": "29463-7"
        }, {
          "system": "http://snomed.info/sct",
          "code": "27113001"
        } ],
        "text": "Body Weight"
      },
      "subject": {
        "reference": "Patient/a8049a191013251ddc3044a0a349c06ef544bdc4a2a07cc80ce470ce73b94eb8"
      },
      "encounter": {
        "reference": "Encounter/9b494e3fc8734e35d6ac69d212bd41d19f0235e55a741f28dfbd47085e16e5d7"
      },
      "_effectiveDateTime": {
        "extension": [ {
          "url": "http://hl7.org/fhir/StructureDefinition/data-absent-reason",
          "valueCode": "unknown"
        } ]
      },
      "valueQuantity": {
        "value": 115,
        "unit": "kilogram",
        "system": "http://unitsofmeasure.org",
        "code": "kg"
      }
    },
    "request": {
      "method": "POST",
      "url": "Observation",
      "ifNoneExist": "identifier=https://mein.krankenhaus.de/fhir/NamingSystem/observationId|aca0a3fcd70e27b859424ff05bb400494410064fa49294d856374ffe3393d71d"
    }
  }, {
    "fullUrl": "Observation/d74fc251d399691cd49843602632f9af0fa266a86fdb73620fa72e3ae9cba0a4",
    "resource": {
      "resourceType": "Observation",
      "meta": {
        "profile": [ "https://www.netzwerk-universitaetsmedizin.de/fhir/StructureDefinition/body-height" ]
      },
      "identifier": [ {
        "type": {
          "coding": [ {
            "system": "http://terminology.hl7.org/CodeSystem/v2-0203",
            "code": "OBI",
            "display": "Observation Instance Identifier"
          } ]
        },
        "system": "https://mein.krankenhaus.de/fhir/NamingSystem/observationId",
        "value": "246984713bc3ea014d9c7771b5a2ddf8e76db80ba5510eaf1e00b2804d9c98be",
        "assigner": {
          "reference": "Organization/3a4f3433bce81181bad2d8e0b8fafccf7dc800bc06f29be73dcb38b750a48f9a"
        }
      } ],
      "status": "final",
      "category": [ {
        "coding": [ {
          "system": "http://terminology.hl7.org/CodeSystem/observation-category",
          "code": "vital-signs",
          "display": "Vital Signs"
        } ]
      } ],
      "code": {
        "coding": [ {
          "system": "http://loinc.org",
          "code": "8302-2"
        }, {
          "system": "http://snomed.info/sct",
          "code": "50373000"
        } ],
        "text": "Body height"
      },
      "subject": {
        "reference": "Patient/a8049a191013251ddc3044a0a349c06ef544bdc4a2a07cc80ce470ce73b94eb8"
      },
      "encounter": {
        "reference": "Encounter/9b494e3fc8734e35d6ac69d212bd41d19f0235e55a741f28dfbd47085e16e5d7"
      },
      "_effectiveDateTime": {
        "extension": [ {
          "url": "http://hl7.org/fhir/StructureDefinition/data-absent-reason",
          "valueCode": "unknown"
        } ]
      },
      "valueQuantity": {
        "value": 43,
        "unit": "centimeter",
        "system": "http://unitsofmeasure.org",
        "code": "cm"
      }
    },
    "request": {
      "method": "POST",
      "url": "Observation",
      "ifNoneExist": "identifier=https://mein.krankenhaus.de/fhir/NamingSystem/observationId|d74fc251d399691cd49843602632f9af0fa266a86fdb73620fa72e3ae9cba0a4"
    }
  }, {
    "fullUrl": "Observation/96039af03e480533d271791bac42e6f3186ba6c4c63ae9c6b6afb8b141274227",
    "resource": {
      "resourceType": "Observation",
      "meta": {
        "profile": [ "https://www.netzwerk-universitaetsmedizin.de/fhir/StructureDefinition/known-exposure" ]
      },
      "identifier": [ {
        "type": {
          "coding": [ {
            "system": "http://terminology.hl7.org/CodeSystem/v2-0203",
            "code": "OBI",
            "display": "Observation Instance Identifier"
          } ]
        },
        "system": "https://mein.krankenhaus.de/fhir/NamingSystem/observationId",
        "value": "806164e0769a9c46b05207b4b035ec39f287e35c75772269eea0c73f24a1099c",
        "assigner": {
          "reference": "Organization/3a4f3433bce81181bad2d8e0b8fafccf7dc800bc06f29be73dcb38b750a48f9a"
        }
      } ],
      "status": "final",
      "category": [ {
        "coding": [ {
          "system": "http://terminology.hl7.org/CodeSystem/observation-category",
          "code": "social-history",
          "display": "Social History"
        } ]
      } ],
      "code": {
        "coding": [ {
          "system": "http://loinc.org",
          "code": "88636-6"
        } ],
        "text": "Known exposure"
      },
      "subject": {
        "reference": "Patient/a8049a191013251ddc3044a0a349c06ef544bdc4a2a07cc80ce470ce73b94eb8"
      },
      "encounter": {
        "reference": "Encounter/9b494e3fc8734e35d6ac69d212bd41d19f0235e55a741f28dfbd47085e16e5d7"
      },
      "_effectiveDateTime": {
        "extension": [ {
          "url": "http://hl7.org/fhir/StructureDefinition/data-absent-reason",
          "valueCode": "unknown"
        } ]
      },
      "valueCodeableConcept": {
        "coding": [ {
          "system": "http://snomed.info/sct",
          "code": "840546002"
        } ]
      }
    },
    "request": {
      "method": "POST",
      "url": "Observation",
      "ifNoneExist": "identifier=https://mein.krankenhaus.de/fhir/NamingSystem/observationId|96039af03e480533d271791bac42e6f3186ba6c4c63ae9c6b6afb8b141274227"
    }
  }, {
    "fullUrl": "Procedure/b3563f9c07b485133c4d8f7bde597bf995c76d3ad9fa45124738df8163a53d79",
    "resource": {
      "resourceType": "Procedure",
      "meta": {
        "profile": [ "https://www.netzwerk-universitaetsmedizin.de/fhir/StructureDefinition/dialysis" ]
      },
      "identifier": [ {
        "system": "https://mein.krankenhaus.de/fhir/NamingSystem/procedureId",
        "value": "4dce6937c979208729710fafe00873ef5c729ea7c6d4987343fa80fa7f758b6e"
      } ],
      "status": "not-done",
      "category": {
        "coding": [ {
          "system": "http://snomed.info/sct",
          "code": "277132007",
          "display": "Therapeutic procedure (procedure)"
        } ]
      },
      "code": {
        "coding": [ {
          "system": "http://snomed.info/sct",
          "code": "108241001"
        } ],
        "text": "Dialysis"
      },
      "subject": {
        "reference": "Patient/a8049a191013251ddc3044a0a349c06ef544bdc4a2a07cc80ce470ce73b94eb8"
      },
      "encounter": {
        "reference": "Encounter/9b494e3fc8734e35d6ac69d212bd41d19f0235e55a741f28dfbd47085e16e5d7"
      },
      "_performedDateTime": {
        "extension": [ {
          "url": "http://hl7.org/fhir/StructureDefinition/data-absent-reason",
          "valueCode": "not-performed"
        } ]
      }
    },
    "request": {
      "method": "POST",
      "url": "Procedure",
      "ifNoneExist": "identifier=https://mein.krankenhaus.de/fhir/NamingSystem/procedureId|b3563f9c07b485133c4d8f7bde597bf995c76d3ad9fa45124738df8163a53d79"
    }
  }, {
    "fullUrl": "Procedure/d7ba5aa0a0428ab5acc36dd676da01f3c1390474197e2266238f642ade4a1b00",
    "resource": {
      "resourceType": "Procedure",
      "meta": {
        "profile": [ "https://www.netzwerk-universitaetsmedizin.de/fhir/StructureDefinition/apheresis" ]
      },
      "identifier": [ {
        "system": "https://mein.krankenhaus.de/fhir/NamingSystem/procedureId",
        "value": "158d60630cab7c41acf6ced33a103e4366915723ede8a311c3264beeab5ac9e0"
      } ],
      "status": "in-progress",
      "category": {
        "coding": [ {
          "system": "http://snomed.info/sct",
          "code": "277132007",
          "display": "Therapeutic procedure (procedure)"
        } ]
      },
      "code": {
        "coding": [ {
          "system": "http://snomed.info/sct",
          "code": "127788007"
        } ],
        "text": "Apheresis"
      },
      "subject": {
        "reference": "Patient/a8049a191013251ddc3044a0a349c06ef544bdc4a2a07cc80ce470ce73b94eb8"
      },
      "encounter": {
        "reference": "Encounter/9b494e3fc8734e35d6ac69d212bd41d19f0235e55a741f28dfbd47085e16e5d7"
      },
      "_performedDateTime": {
        "extension": [ {
          "url": "http://hl7.org/fhir/StructureDefinition/data-absent-reason",
          "valueCode": "unknown"
        } ]
      }
    },
    "request": {
      "method": "POST",
      "url": "Procedure",
      "ifNoneExist": "identifier=https://mein.krankenhaus.de/fhir/NamingSystem/procedureId|d7ba5aa0a0428ab5acc36dd676da01f3c1390474197e2266238f642ade4a1b00"
    }
  }, {
    "fullUrl": "Procedure/ad0a2f65102d078af5c09905f60ae19e1ef7ffe8ba125e7472ad5b0c2c16c478",
    "resource": {
      "resourceType": "Procedure",
      "meta": {
        "profile": [ "https://www.netzwerk-universitaetsmedizin.de/fhir/StructureDefinition/prone-position" ]
      },
      "identifier": [ {
        "system": "https://mein.krankenhaus.de/fhir/NamingSystem/procedureId",
        "value": "086b9ed352322aae213ad576e2386e2a31325325992d1b84ecefa24cf3ce53be"
      } ],
      "status": "in-progress",
      "category": {
        "coding": [ {
          "system": "http://snomed.info/sct",
          "code": "225287004",
          "display": "Procedures relating to positioning and support (procedure)"
        } ]
      },
      "code": {
        "coding": [ {
          "system": "http://snomed.info/sct",
          "code": "431182000"
        } ],
        "text": "Prone position"
      },
      "subject": {
        "reference": "Patient/a8049a191013251ddc3044a0a349c06ef544bdc4a2a07cc80ce470ce73b94eb8"
      },
      "encounter": {
        "reference": "Encounter/9b494e3fc8734e35d6ac69d212bd41d19f0235e55a741f28dfbd47085e16e5d7"
      },
      "_performedDateTime": {
        "extension": [ {
          "url": "http://hl7.org/fhir/StructureDefinition/data-absent-reason",
          "valueCode": "unknown"
        } ]
      }
    },
    "request": {
      "method": "POST",
      "url": "Procedure",
      "ifNoneExist": "identifier=https://mein.krankenhaus.de/fhir/NamingSystem/procedureId|ad0a2f65102d078af5c09905f60ae19e1ef7ffe8ba125e7472ad5b0c2c16c478"
    }
  }, {
    "fullUrl": "Procedure/89a2c76e7477b9bee2eb3497f1b0226cf54039db5da8ea431bf25c0576543153",
    "resource": {
      "resourceType": "Procedure",
      "meta": {
        "profile": [ "https://www.netzwerk-universitaetsmedizin.de/fhir/StructureDefinition/respiratory-therapies" ]
      },
      "identifier": [ {
        "system": "https://mein.krankenhaus.de/fhir/NamingSystem/procedureId",
        "value": "49abbf0a9cfb3d166560473d5344f0cc19bdab4ba208e7bdedb930871bee880f"
      } ],
      "status": "in-progress",
      "category": {
        "coding": [ {
          "system": "http://snomed.info/sct",
          "code": "277132007",
          "display": "Therapeutic procedure (procedure)"
        } ]
      },
      "code": {
        "coding": [ {
          "system": "http://snomed.info/sct",
          "code": "371907003:425391005=426854004"
        } ]
      },
      "subject": {
        "reference": "Patient/a8049a191013251ddc3044a0a349c06ef544bdc4a2a07cc80ce470ce73b94eb8"
      },
      "encounter": {
        "reference": "Encounter/9b494e3fc8734e35d6ac69d212bd41d19f0235e55a741f28dfbd47085e16e5d7"
      },
      "_performedDateTime": {
        "extension": [ {
          "url": "http://hl7.org/fhir/StructureDefinition/data-absent-reason",
          "valueCode": "unknown"
        } ]
      },
      "usedCode": [ {
        "coding": [ {
          "system": "http://snomed.info/sct",
          "code": "426854004"
        } ]
      } ]
    },
    "request": {
      "method": "POST",
      "url": "Procedure",
      "ifNoneExist": "identifier=https://mein.krankenhaus.de/fhir/NamingSystem/procedureId|89a2c76e7477b9bee2eb3497f1b0226cf54039db5da8ea431bf25c0576543153"
    }
  }, {
    "fullUrl": "Observation/e2bf758d07c9438c3044a7ce11cc9d09958934cb9eb0852b04ff2aad8a1979a7",
    "resource": {
      "resourceType": "Observation",
      "meta": {
        "profile": [ "https://www.netzwerk-universitaetsmedizin.de/fhir/StructureDefinition/patient-in-icu" ]
      },
      "identifier": [ {
        "system": "https://mein.krankenhaus.de/fhir/NamingSystem/observationId",
        "value": "4f37af14036727317c61a00abef3f67b9cd381a65de4f2537c54fecb43817c4e"
      } ],
      "status": "final",
      "category": [ {
        "coding": [ {
          "system": "http://terminology.hl7.org/CodeSystem/observation-category",
          "code": "survey",
          "display": "Survey"
        } ]
      } ],
      "code": {
        "coding": [ {
          "system": "https://www.netzwerk-universitaetsmedizin.de/fhir/CodeSystem/ecrf-parameter-codes",
          "code": "01",
          "display": "Is the patient in the intensive care unit?"
        } ]
      },
      "subject": {
        "reference": "Patient/a8049a191013251ddc3044a0a349c06ef544bdc4a2a07cc80ce470ce73b94eb8"
      },
      "encounter": {
        "reference": "Encounter/9b494e3fc8734e35d6ac69d212bd41d19f0235e55a741f28dfbd47085e16e5d7"
      },
      "_effectiveDateTime": {
        "extension": [ {
          "url": "http://hl7.org/fhir/StructureDefinition/data-absent-reason",
          "valueCode": "unknown"
        } ]
      },
      "valueCodeableConcept": {
        "coding": [ {
          "system": "http://snomed.info/sct",
          "code": "261665006"
        } ]
      }
    },
    "request": {
      "method": "POST",
      "url": "Observation",
      "ifNoneExist": "identifier=https://mein.krankenhaus.de/fhir/NamingSystem/observationId|e2bf758d07c9438c3044a7ce11cc9d09958934cb9eb0852b04ff2aad8a1979a7"
    }
  }, {
    "fullUrl": "Condition/69c7f1f89b2281dbac24aa9a3fd5c7c5dae2fa6ae3e83512abf79f12b3a7c4ca",
    "resource": {
      "resourceType": "Condition",
      "meta": {
        "profile": [ "https://www.netzwerk-universitaetsmedizin.de/fhir/StructureDefinition/dependence-on-ventilator" ]
      },
      "identifier": [ {
        "system": "https://mein.krankenhaus.de/fhir/NamingSystem/conditionId",
        "value": "37393db994096c95043462bd256708f3ec23f90877156c59cc2cb81e3e78bb7a"
      } ],
      "clinicalStatus": {
        "coding": [ {
          "system": "http://terminology.hl7.org/CodeSystem/condition-clinical",
          "code": "active",
          "display": "Active"
        } ]
      },
      "verificationStatus": {
        "coding": [ {
          "system": "http://terminology.hl7.org/CodeSystem/condition-ver-status",
          "code": "refuted",
          "display": "Refuted"
        }, {
          "system": "http://snomed.info/sct",
          "code": "410594000",
          "display": "Definitely NOT present (qualifier value)"
        } ]
      },
      "category": [ {
        "coding": [ {
          "system": "http://snomed.info/sct",
          "code": "404989005",
          "display": "Ventilation status (observable entity)"
        } ]
      } ],
      "code": {
        "coding": [ {
          "system": "http://snomed.info/sct",
          "code": "444932008"
        } ]
      },
      "subject": {
        "reference": "Patient/a8049a191013251ddc3044a0a349c06ef544bdc4a2a07cc80ce470ce73b94eb8"
      },
      "encounter": {
        "reference": "Encounter/9b494e3fc8734e35d6ac69d212bd41d19f0235e55a741f28dfbd47085e16e5d7"
      },
      "_recordedDate": {
        "extension": [ {
          "url": "http://hl7.org/fhir/StructureDefinition/data-absent-reason",
          "valueCode": "unknown"
        } ]
      }
    },
    "request": {
      "method": "POST",
      "url": "Condition",
      "ifNoneExist": "identifier=https://mein.krankenhaus.de/fhir/NamingSystem/conditionId|69c7f1f89b2281dbac24aa9a3fd5c7c5dae2fa6ae3e83512abf79f12b3a7c4ca"
    }
  }, {
    "fullUrl": "Observation/7625cfda0f197ab677db141865a0175c3cc5557678938210429053812c43040b",
    "resource": {
      "resourceType": "Observation",
      "meta": {
        "profile": [ "https://www.netzwerk-universitaetsmedizin.de/fhir/StructureDefinition/discharge-disposition" ]
      },
      "identifier": [ {
        "type": {
          "coding": [ {
            "system": "http://terminology.hl7.org/CodeSystem/v2-0203",
            "code": "OBI",
            "display": "Observation Instance Identifier"
          } ]
        },
        "system": "https://mein.krankenhaus.de/fhir/NamingSystem/observationId",
        "value": "2ca17efb72236f12e558245dbf215a9d2f7c78755c2f4a1aa8083ba6d2af20ba",
        "assigner": {
          "reference": "Organization/3a4f3433bce81181bad2d8e0b8fafccf7dc800bc06f29be73dcb38b750a48f9a"
        }
      } ],
      "status": "final",
      "category": [ {
        "coding": [ {
          "system": "http://terminology.hl7.org/CodeSystem/observation-category",
          "code": "social-history",
          "display": "Social History"
        } ]
      } ],
      "code": {
        "coding": [ {
          "system": "http://loinc.org",
          "code": "55128-3"
        } ],
        "text": "type of Discharge"
      },
      "subject": {
        "reference": "Patient/a8049a191013251ddc3044a0a349c06ef544bdc4a2a07cc80ce470ce73b94eb8"
      },
      "encounter": {
        "reference": "Encounter/9b494e3fc8734e35d6ac69d212bd41d19f0235e55a741f28dfbd47085e16e5d7"
      },
      "_effectiveDateTime": {
        "extension": [ {
          "url": "http://hl7.org/fhir/StructureDefinition/data-absent-reason",
          "valueCode": "unknown"
        } ]
      },
      "valueCodeableConcept": {
        "coding": [ {
          "system": "http://snomed.info/sct",
          "code": "32485007"
        } ]
      }
    },
    "request": {
      "method": "POST",
      "url": "Observation",
      "ifNoneExist": "identifier=https://mein.krankenhaus.de/fhir/NamingSystem/observationId|7625cfda0f197ab677db141865a0175c3cc5557678938210429053812c43040b"
    }
  }, {
    "fullUrl": "Observation/8d70871c310131c5e9b0a36c0a725cd1399ff53b599db9d7deb9bd947df679cf",
    "resource": {
      "resourceType": "Observation",
      "meta": {
        "profile": [ "https://www.netzwerk-universitaetsmedizin.de/fhir/StructureDefinition/sars-cov-2-rt-pcr" ]
      },
      "identifier": [ {
        "type": {
          "coding": [ {
            "system": "http://terminology.hl7.org/CodeSystem/v2-0203",
            "code": "OBI",
            "display": "Observation Instance Identifier"
          } ]
        },
        "system": "https://mein.krankenhaus.de/fhir/NamingSystem/observationId",
        "value": "9a2286b903338ac1f59678801101d405a01ba18ce16edf7f17b92910915b2a2a",
        "assigner": {
          "reference": "Organization/3a4f3433bce81181bad2d8e0b8fafccf7dc800bc06f29be73dcb38b750a48f9a"
        }
      } ],
      "status": "final",
      "category": [ {
        "coding": [ {
          "system": "http://terminology.hl7.org/CodeSystem/observation-category",
          "code": "laboratory",
          "display": "Laboratory"
        }, {
          "system": "http://loinc.org",
          "code": "26436-6",
          "display": "Laboratory studies (set)"
        } ]
      } ],
      "code": {
        "coding": [ {
          "system": "http://loinc.org",
          "code": "94500-6"
        } ]
      },
      "subject": {
        "reference": "Patient/a8049a191013251ddc3044a0a349c06ef544bdc4a2a07cc80ce470ce73b94eb8"
      },
      "encounter": {
        "reference": "Encounter/9b494e3fc8734e35d6ac69d212bd41d19f0235e55a741f28dfbd47085e16e5d7"
      },
      "_effectiveDateTime": {
        "extension": [ {
          "url": "http://hl7.org/fhir/StructureDefinition/data-absent-reason",
          "valueCode": "unknown"
        } ]
      },
      "valueCodeableConcept": {
        "coding": [ {
          "system": "http://snomed.info/sct",
          "code": "260415000"
        } ]
      }
    },
    "request": {
      "method": "POST",
      "url": "Observation",
      "ifNoneExist": "identifier=https://mein.krankenhaus.de/fhir/NamingSystem/observationId|8d70871c310131c5e9b0a36c0a725cd1399ff53b599db9d7deb9bd947df679cf"
    }
  }, {
    "fullUrl": "Observation/e825d5256646be84357ec9ae253d73254d1dffd8b9273232f3094ac7ef859992",
    "resource": {
      "resourceType": "Observation",
      "meta": {
        "profile": [ "https://www.medizininformatik-initiative.de/fhir/core/modul-labor/StructureDefinition/ObservationLab" ]
      },
      "identifier": [ {
        "type": {
          "coding": [ {
            "system": "http://terminology.hl7.org/CodeSystem/v2-0203",
            "code": "OBI",
            "display": "Observation Instance Identifier"
          } ]
        },
        "system": "https://mein.krankenhaus.de/fhir/NamingSystem/observationId",
        "value": "219b9e3bdff11b144967b3aaddbcccef4acc2f80abc1558a198aff42cf9d945d",
        "assigner": {
          "reference": "Organization/3a4f3433bce81181bad2d8e0b8fafccf7dc800bc06f29be73dcb38b750a48f9a"
        }
      } ],
      "status": "final",
      "category": [ {
        "coding": [ {
          "system": "http://terminology.hl7.org/CodeSystem/observation-category",
          "code": "laboratory",
          "display": "Laboratory"
        }, {
          "system": "http://loinc.org",
          "code": "26436-6"
        } ]
      } ],
      "code": {
        "coding": [ {
          "system": "http://loinc.org",
          "code": "76485-2",
          "display": "c-reactive-protein-in-serum-or-plasma"
        } ],
        "text": "crp"
      },
      "subject": {
        "reference": "Patient/a8049a191013251ddc3044a0a349c06ef544bdc4a2a07cc80ce470ce73b94eb8"
      },
      "encounter": {
        "reference": "Encounter/9b494e3fc8734e35d6ac69d212bd41d19f0235e55a741f28dfbd47085e16e5d7"
      },
      "effectiveDateTime": "2020-12-07T02:11:00+00:00",
      "valueQuantity": {
        "value": 84.18459887687325,
        "unit": "nmol/L",
        "system": "http://unitsofmeasure.org",
        "code": "nmol/L"
      }
    },
    "request": {
      "method": "POST",
      "url": "Observation",
      "ifNoneExist": "identifier=https://mein.krankenhaus.de/fhir/NamingSystem/observationId|e825d5256646be84357ec9ae253d73254d1dffd8b9273232f3094ac7ef859992"
    }
  }, {
    "fullUrl": "Observation/8060e681661a6b452fcaa3bd40390bbca6cda97eefe8b88ce5d0ddb69a4aed4b",
    "resource": {
      "resourceType": "Observation",
      "meta": {
        "profile": [ "https://www.medizininformatik-initiative.de/fhir/core/modul-labor/StructureDefinition/ObservationLab" ]
      },
      "identifier": [ {
        "type": {
          "coding": [ {
            "system": "http://terminology.hl7.org/CodeSystem/v2-0203",
            "code": "OBI",
            "display": "Observation Instance Identifier"
          } ]
        },
        "system": "https://mein.krankenhaus.de/fhir/NamingSystem/observationId",
        "value": "478911f2ffd4acc55b79e9e0785b6630c6ca4f3e9df3c45c9921ba8e481dfc3e",
        "assigner": {
          "reference": "Organization/3a4f3433bce81181bad2d8e0b8fafccf7dc800bc06f29be73dcb38b750a48f9a"
        }
      } ],
      "status": "final",
      "category": [ {
        "coding": [ {
          "system": "http://terminology.hl7.org/CodeSystem/observation-category",
          "code": "laboratory",
          "display": "Laboratory"
        }, {
          "system": "http://loinc.org",
          "code": "26436-6"
        } ]
      } ],
      "code": {
        "coding": [ {
          "system": "http://loinc.org",
          "code": "20567-4"
        }, {
          "system": "http://loinc.org",
          "code": "86914-9"
        }, {
          "system": "http://loinc.org",
          "code": "14723-1"
        }, {
          "system": "http://loinc.org",
          "code": "2276-4"
        }, {
          "system": "http://loinc.org",
          "code": "24373-3"
        } ],
        "text": "ferritin"
      },
      "subject": {
        "reference": "Patient/a8049a191013251ddc3044a0a349c06ef544bdc4a2a07cc80ce470ce73b94eb8"
      },
      "encounter": {
        "reference": "Encounter/9b494e3fc8734e35d6ac69d212bd41d19f0235e55a741f28dfbd47085e16e5d7"
      },
      "effectiveDateTime": "2020-12-07T02:11:00+00:00",
      "valueQuantity": {
        "value": 84.47608045832806,
        "unit": "ng/mL",
        "system": "http://unitsofmeasure.org",
        "code": "ng/mL"
      }
    },
    "request": {
      "method": "POST",
      "url": "Observation",
      "ifNoneExist": "identifier=https://mein.krankenhaus.de/fhir/NamingSystem/observationId|8060e681661a6b452fcaa3bd40390bbca6cda97eefe8b88ce5d0ddb69a4aed4b"
    }
  }, {
    "fullUrl": "Observation/7853a424cb033f70ce33f44ca8736b300a2e9b52b228095be6dd244b6e0f4b49",
    "resource": {
      "resourceType": "Observation",
      "meta": {
        "profile": [ "https://www.medizininformatik-initiative.de/fhir/core/modul-labor/StructureDefinition/ObservationLab" ]
      },
      "identifier": [ {
        "type": {
          "coding": [ {
            "system": "http://terminology.hl7.org/CodeSystem/v2-0203",
            "code": "OBI",
            "display": "Observation Instance Identifier"
          } ]
        },
        "system": "https://mein.krankenhaus.de/fhir/NamingSystem/observationId",
        "value": "a9b1dcd8270146222812084087710e4150fe66b9e5ce1594d7af23c526d21e6d",
        "assigner": {
          "reference": "Organization/3a4f3433bce81181bad2d8e0b8fafccf7dc800bc06f29be73dcb38b750a48f9a"
        }
      } ],
      "status": "final",
      "category": [ {
        "coding": [ {
          "system": "http://terminology.hl7.org/CodeSystem/observation-category",
          "code": "laboratory",
          "display": "Laboratory"
        }, {
          "system": "http://loinc.org",
          "code": "26436-6"
        } ]
      } ],
      "code": {
        "coding": [ {
          "system": "http://loinc.org",
          "code": "38898-3",
          "display": "fibrin-d-dimer-in-platelet-poor-plasma"
        } ],
        "text": "ddimer"
      },
      "subject": {
        "reference": "Patient/a8049a191013251ddc3044a0a349c06ef544bdc4a2a07cc80ce470ce73b94eb8"
      },
      "encounter": {
        "reference": "Encounter/9b494e3fc8734e35d6ac69d212bd41d19f0235e55a741f28dfbd47085e16e5d7"
      },
      "effectiveDateTime": "2020-12-07T02:11:00+00:00",
      "valueQuantity": {
        "value": 73.44932254012174,
        "unit": "{titer}",
        "system": "http://unitsofmeasure.org",
        "code": "{titer}"
      }
    },
    "request": {
      "method": "POST",
      "url": "Observation",
      "ifNoneExist": "identifier=https://mein.krankenhaus.de/fhir/NamingSystem/observationId|7853a424cb033f70ce33f44ca8736b300a2e9b52b228095be6dd244b6e0f4b49"
    }
  }, {
    "fullUrl": "Observation/87d8094a7bae3d748b7a55f49606c0fcb953cd1e182c154a0c34a516fb5d5ab5",
    "resource": {
      "resourceType": "Observation",
      "meta": {
        "profile": [ "https://www.medizininformatik-initiative.de/fhir/core/modul-labor/StructureDefinition/ObservationLab" ]
      },
      "identifier": [ {
        "type": {
          "coding": [ {
            "system": "http://terminology.hl7.org/CodeSystem/v2-0203",
            "code": "OBI",
            "display": "Observation Instance Identifier"
          } ]
        },
        "system": "https://mein.krankenhaus.de/fhir/NamingSystem/observationId",
        "value": "901c92efb205eb9fb262c0c176796c265cad923c4abb8f49c93087bb1355bcef",
        "assigner": {
          "reference": "Organization/3a4f3433bce81181bad2d8e0b8fafccf7dc800bc06f29be73dcb38b750a48f9a"
        }
      } ],
      "status": "final",
      "category": [ {
        "coding": [ {
          "system": "http://terminology.hl7.org/CodeSystem/observation-category",
          "code": "laboratory",
          "display": "Laboratory"
        }, {
          "system": "http://loinc.org",
          "code": "26436-6"
        } ]
      } ],
      "code": {
        "coding": [ {
          "system": "http://loinc.org",
          "code": "2324-2",
          "display": "gamma-glutamyl-transferase-in-serum-or-plasma"
        } ],
        "text": "gammagt"
      },
      "subject": {
        "reference": "Patient/a8049a191013251ddc3044a0a349c06ef544bdc4a2a07cc80ce470ce73b94eb8"
      },
      "encounter": {
        "reference": "Encounter/9b494e3fc8734e35d6ac69d212bd41d19f0235e55a741f28dfbd47085e16e5d7"
      },
      "effectiveDateTime": "2020-12-07T02:11:00+00:00",
      "valueQuantity": {
        "value": 58.387491930241566,
        "unit": "U/L",
        "system": "http://unitsofmeasure.org",
        "code": "U/L"
      }
    },
    "request": {
      "method": "POST",
      "url": "Observation",
      "ifNoneExist": "identifier=https://mein.krankenhaus.de/fhir/NamingSystem/observationId|87d8094a7bae3d748b7a55f49606c0fcb953cd1e182c154a0c34a516fb5d5ab5"
    }
  }, {
    "fullUrl": "Observation/c4a398f8960d1c598a649b01ddba92f518a01e9c39f1ba4dd3cc0be725c3cb28",
    "resource": {
      "resourceType": "Observation",
      "meta": {
        "profile": [ "https://www.medizininformatik-initiative.de/fhir/core/modul-labor/StructureDefinition/ObservationLab" ]
      },
      "identifier": [ {
        "type": {
          "coding": [ {
            "system": "http://terminology.hl7.org/CodeSystem/v2-0203",
            "code": "OBI",
            "display": "Observation Instance Identifier"
          } ]
        },
        "system": "https://mein.krankenhaus.de/fhir/NamingSystem/observationId",
        "value": "b554456be04708b79e7fc8e53c571cfffbcc519cf66b1a2af4978293cbd625b6",
        "assigner": {
          "reference": "Organization/3a4f3433bce81181bad2d8e0b8fafccf7dc800bc06f29be73dcb38b750a48f9a"
        }
      } ],
      "status": "final",
      "category": [ {
        "coding": [ {
          "system": "http://terminology.hl7.org/CodeSystem/observation-category",
          "code": "laboratory",
          "display": "Laboratory"
        }, {
          "system": "http://loinc.org",
          "code": "26436-6"
        } ]
      } ],
      "code": {
        "coding": [ {
          "system": "http://loinc.org",
          "code": "88112-8",
          "display": "aspartate-aminotransferase-in-serum-or-plasma-by-no-addition-of-p-5-p"
        } ],
        "text": "gotast"
      },
      "subject": {
        "reference": "Patient/a8049a191013251ddc3044a0a349c06ef544bdc4a2a07cc80ce470ce73b94eb8"
      },
      "encounter": {
        "reference": "Encounter/9b494e3fc8734e35d6ac69d212bd41d19f0235e55a741f28dfbd47085e16e5d7"
      },
      "effectiveDateTime": "2020-12-07T02:11:00+00:00",
      "valueQuantity": {
        "value": 29.32407534815806,
        "unit": "U/L",
        "system": "http://unitsofmeasure.org",
        "code": "U/L"
      }
    },
    "request": {
      "method": "POST",
      "url": "Observation",
      "ifNoneExist": "identifier=https://mein.krankenhaus.de/fhir/NamingSystem/observationId|c4a398f8960d1c598a649b01ddba92f518a01e9c39f1ba4dd3cc0be725c3cb28"
    }
  }, {
    "fullUrl": "Observation/8c470e19aafe6dcb18c56304302aecc47445b2e977657960f7e7ea11289464f8",
    "resource": {
      "resourceType": "Observation",
      "meta": {
        "profile": [ "https://www.medizininformatik-initiative.de/fhir/core/modul-labor/StructureDefinition/ObservationLab" ]
      },
      "identifier": [ {
        "type": {
          "coding": [ {
            "system": "http://terminology.hl7.org/CodeSystem/v2-0203",
            "code": "OBI",
            "display": "Observation Instance Identifier"
          } ]
        },
        "system": "https://mein.krankenhaus.de/fhir/NamingSystem/observationId",
        "value": "b704624e6c81c809a107feba4f7a2975f8472911b26e5e76d7b5bcc79abf9f12",
        "assigner": {
          "reference": "Organization/3a4f3433bce81181bad2d8e0b8fafccf7dc800bc06f29be73dcb38b750a48f9a"
        }
      } ],
      "status": "final",
      "category": [ {
        "coding": [ {
          "system": "http://terminology.hl7.org/CodeSystem/observation-category",
          "code": "laboratory",
          "display": "Laboratory"
        }, {
          "system": "http://loinc.org",
          "code": "26436-6"
        } ]
      } ],
      "code": {
        "coding": [ {
          "system": "http://loinc.org",
          "code": "14803-1",
          "display": "lactate-dehydrogenase-in-body-fluid-by-lactate-to-pyruvate-reaction"
        } ],
        "text": "ldh"
      },
      "subject": {
        "reference": "Patient/a8049a191013251ddc3044a0a349c06ef544bdc4a2a07cc80ce470ce73b94eb8"
      },
      "encounter": {
        "reference": "Encounter/9b494e3fc8734e35d6ac69d212bd41d19f0235e55a741f28dfbd47085e16e5d7"
      },
      "effectiveDateTime": "2020-12-07T02:11:00+00:00",
      "valueQuantity": {
        "value": 69.31114575974712,
        "unit": "U/L",
        "system": "http://unitsofmeasure.org",
        "code": "U/L"
      }
    },
    "request": {
      "method": "POST",
      "url": "Observation",
      "ifNoneExist": "identifier=https://mein.krankenhaus.de/fhir/NamingSystem/observationId|8c470e19aafe6dcb18c56304302aecc47445b2e977657960f7e7ea11289464f8"
    }
  }, {
    "fullUrl": "Observation/1fa9ad0e91581a63b17b6c4041ca6b5e9ecbe0b3373b0b8825a7e2f7ebf31b51",
    "resource": {
      "resourceType": "Observation",
      "meta": {
        "profile": [ "https://www.medizininformatik-initiative.de/fhir/core/modul-labor/StructureDefinition/ObservationLab" ]
      },
      "identifier": [ {
        "type": {
          "coding": [ {
            "system": "http://terminology.hl7.org/CodeSystem/v2-0203",
            "code": "OBI",
            "display": "Observation Instance Identifier"
          } ]
        },
        "system": "https://mein.krankenhaus.de/fhir/NamingSystem/observationId",
        "value": "0671f8c82fc8990d8e0d3f79773d171eb2a067fd2139ce3145f36018ac68ee59",
        "assigner": {
          "reference": "Organization/3a4f3433bce81181bad2d8e0b8fafccf7dc800bc06f29be73dcb38b750a48f9a"
        }
      } ],
      "status": "final",
      "category": [ {
        "coding": [ {
          "system": "http://terminology.hl7.org/CodeSystem/observation-category",
          "code": "laboratory",
          "display": "Laboratory"
        }, {
          "system": "http://loinc.org",
          "code": "26436-6"
        } ]
      } ],
      "code": {
        "coding": [ {
          "system": "http://loinc.org",
          "code": "42757-5",
          "display": "troponin-i.cardiac-in-blood"
        } ],
        "text": "kardiale_troponine"
      },
      "subject": {
        "reference": "Patient/a8049a191013251ddc3044a0a349c06ef544bdc4a2a07cc80ce470ce73b94eb8"
      },
      "encounter": {
        "reference": "Encounter/9b494e3fc8734e35d6ac69d212bd41d19f0235e55a741f28dfbd47085e16e5d7"
      },
      "effectiveDateTime": "2020-12-07T02:11:00+00:00",
      "valueQuantity": {
        "value": 94.47167233805854,
        "unit": "ug/L",
        "system": "http://unitsofmeasure.org",
        "code": "ug/L"
      }
    },
    "request": {
      "method": "POST",
      "url": "Observation",
      "ifNoneExist": "identifier=https://mein.krankenhaus.de/fhir/NamingSystem/observationId|1fa9ad0e91581a63b17b6c4041ca6b5e9ecbe0b3373b0b8825a7e2f7ebf31b51"
    }
  }, {
    "fullUrl": "Observation/81e5e20801e0ee296f23040998485b12c67a4109a8f932104cc93f781cd99f31",
    "resource": {
      "resourceType": "Observation",
      "meta": {
        "profile": [ "https://www.medizininformatik-initiative.de/fhir/core/modul-labor/StructureDefinition/ObservationLab" ]
      },
      "identifier": [ {
        "type": {
          "coding": [ {
            "system": "http://terminology.hl7.org/CodeSystem/v2-0203",
            "code": "OBI",
            "display": "Observation Instance Identifier"
          } ]
        },
        "system": "https://mein.krankenhaus.de/fhir/NamingSystem/observationId",
        "value": "112f779dec6f4300abf71c965db334619c4b0627e3b7fe7710d0db53821c72c3",
        "assigner": {
          "reference": "Organization/3a4f3433bce81181bad2d8e0b8fafccf7dc800bc06f29be73dcb38b750a48f9a"
        }
      } ],
      "status": "final",
      "category": [ {
        "coding": [ {
          "system": "http://terminology.hl7.org/CodeSystem/observation-category",
          "code": "laboratory",
          "display": "Laboratory"
        }, {
          "system": "http://loinc.org",
          "code": "26436-6"
        } ]
      } ],
      "code": {
        "coding": [ {
          "system": "http://loinc.org",
          "code": "76768-1",
          "display": "hemoglobin-in-mixed-venous-blood-by-oximetry"
        } ],
        "text": "hamoglobin"
      },
      "subject": {
        "reference": "Patient/a8049a191013251ddc3044a0a349c06ef544bdc4a2a07cc80ce470ce73b94eb8"
      },
      "encounter": {
        "reference": "Encounter/9b494e3fc8734e35d6ac69d212bd41d19f0235e55a741f28dfbd47085e16e5d7"
      },
      "effectiveDateTime": "2020-12-07T02:11:00+00:00",
      "valueQuantity": {
        "value": 41.955715072132826,
        "unit": "g/L",
        "system": "http://unitsofmeasure.org",
        "code": "g/L"
      }
    },
    "request": {
      "method": "POST",
      "url": "Observation",
      "ifNoneExist": "identifier=https://mein.krankenhaus.de/fhir/NamingSystem/observationId|81e5e20801e0ee296f23040998485b12c67a4109a8f932104cc93f781cd99f31"
    }
  }, {
    "fullUrl": "Observation/621a2514b91df31888840c0148b499c1bfb7582a85ec7d5ed95f9573ee9955ba",
    "resource": {
      "resourceType": "Observation",
      "meta": {
        "profile": [ "https://www.medizininformatik-initiative.de/fhir/core/modul-labor/StructureDefinition/ObservationLab" ]
      },
      "identifier": [ {
        "type": {
          "coding": [ {
            "system": "http://terminology.hl7.org/CodeSystem/v2-0203",
            "code": "OBI",
            "display": "Observation Instance Identifier"
          } ]
        },
        "system": "https://mein.krankenhaus.de/fhir/NamingSystem/observationId",
        "value": "6319d343a4f0e1bc9459cf4d573bc45ab3c4fc2b0d6ae040835fb91d246e48b8",
        "assigner": {
          "reference": "Organization/3a4f3433bce81181bad2d8e0b8fafccf7dc800bc06f29be73dcb38b750a48f9a"
        }
      } ],
      "status": "final",
      "category": [ {
        "coding": [ {
          "system": "http://terminology.hl7.org/CodeSystem/observation-category",
          "code": "laboratory",
          "display": "Laboratory"
        }, {
          "system": "http://loinc.org",
          "code": "26436-6"
        } ]
      } ],
      "code": {
        "coding": [ {
          "system": "http://loinc.org",
          "code": "2160-0",
          "display": "creatinine-in-serum-or-plasma"
        } ],
        "text": "kreatinin"
      },
      "subject": {
        "reference": "Patient/a8049a191013251ddc3044a0a349c06ef544bdc4a2a07cc80ce470ce73b94eb8"
      },
      "encounter": {
        "reference": "Encounter/9b494e3fc8734e35d6ac69d212bd41d19f0235e55a741f28dfbd47085e16e5d7"
      },
      "effectiveDateTime": "2020-12-07T02:11:00+00:00",
      "valueQuantity": {
        "value": 27.602749072200407,
        "unit": "mg/L",
        "system": "http://unitsofmeasure.org",
        "code": "mg/L"
      }
    },
    "request": {
      "method": "POST",
      "url": "Observation",
      "ifNoneExist": "identifier=https://mein.krankenhaus.de/fhir/NamingSystem/observationId|621a2514b91df31888840c0148b499c1bfb7582a85ec7d5ed95f9573ee9955ba"
    }
  }, {
    "fullUrl": "Observation/181ae756ef59049620dd05d2bef5de74d44234991655a046141f9fca03951eb1",
    "resource": {
      "resourceType": "Observation",
      "meta": {
        "profile": [ "https://www.medizininformatik-initiative.de/fhir/core/modul-labor/StructureDefinition/ObservationLab" ]
      },
      "identifier": [ {
        "type": {
          "coding": [ {
            "system": "http://terminology.hl7.org/CodeSystem/v2-0203",
            "code": "OBI",
            "display": "Observation Instance Identifier"
          } ]
        },
        "system": "https://mein.krankenhaus.de/fhir/NamingSystem/observationId",
        "value": "e03acd4c11d8d8e84e3bb20ec5b082ea8c3e816461cf11854b5347316e040394",
        "assigner": {
          "reference": "Organization/3a4f3433bce81181bad2d8e0b8fafccf7dc800bc06f29be73dcb38b750a48f9a"
        }
      } ],
      "status": "final",
      "category": [ {
        "coding": [ {
          "system": "http://terminology.hl7.org/CodeSystem/observation-category",
          "code": "laboratory",
          "display": "Laboratory"
        }, {
          "system": "http://loinc.org",
          "code": "26436-6"
        } ]
      } ],
      "code": {
        "coding": [ {
          "system": "http://loinc.org",
          "code": "19239-3",
          "display": "lactate-in-capillary-blood"
        } ],
        "text": "laktat"
      },
      "subject": {
        "reference": "Patient/a8049a191013251ddc3044a0a349c06ef544bdc4a2a07cc80ce470ce73b94eb8"
      },
      "encounter": {
        "reference": "Encounter/9b494e3fc8734e35d6ac69d212bd41d19f0235e55a741f28dfbd47085e16e5d7"
      },
      "effectiveDateTime": "2020-12-07T02:11:00+00:00",
      "valueQuantity": {
        "value": 80.03495856301957,
        "unit": "mmol/L",
        "system": "http://unitsofmeasure.org",
        "code": "mmol/L"
      }
    },
    "request": {
      "method": "POST",
      "url": "Observation",
      "ifNoneExist": "identifier=https://mein.krankenhaus.de/fhir/NamingSystem/observationId|181ae756ef59049620dd05d2bef5de74d44234991655a046141f9fca03951eb1"
    }
  }, {
    "fullUrl": "Observation/172b414f9b2582faad39a016b159d755e4c01110407363d94cdd3b55cf6da87a",
    "resource": {
      "resourceType": "Observation",
      "meta": {
        "profile": [ "https://www.medizininformatik-initiative.de/fhir/core/modul-labor/StructureDefinition/ObservationLab" ]
      },
      "identifier": [ {
        "type": {
          "coding": [ {
            "system": "http://terminology.hl7.org/CodeSystem/v2-0203",
            "code": "OBI",
            "display": "Observation Instance Identifier"
          } ]
        },
        "system": "https://mein.krankenhaus.de/fhir/NamingSystem/observationId",
        "value": "294ef0f28ec49034b647964d6c4f652b3a72b98f5ea3ca407572550614191ed6",
        "assigner": {
          "reference": "Organization/3a4f3433bce81181bad2d8e0b8fafccf7dc800bc06f29be73dcb38b750a48f9a"
        }
      } ],
      "status": "final",
      "category": [ {
        "coding": [ {
          "system": "http://terminology.hl7.org/CodeSystem/observation-category",
          "code": "laboratory",
          "display": "Laboratory"
        }, {
          "system": "http://loinc.org",
          "code": "26436-6"
        } ]
      } ],
      "code": {
        "coding": [ {
          "system": "http://loinc.org",
          "code": "6690-2",
          "display": "leukocytes-in-blood-by-automated-count"
        } ],
        "text": "leukozyten_absolut"
      },
      "subject": {
        "reference": "Patient/a8049a191013251ddc3044a0a349c06ef544bdc4a2a07cc80ce470ce73b94eb8"
      },
      "encounter": {
        "reference": "Encounter/9b494e3fc8734e35d6ac69d212bd41d19f0235e55a741f28dfbd47085e16e5d7"
      },
      "effectiveDateTime": "2020-12-07T02:11:00+00:00",
      "valueQuantity": {
        "value": 19.791617959338026,
        "unit": "10*3/uL",
        "system": "http://unitsofmeasure.org",
        "code": "10*3/uL"
      }
    },
    "request": {
      "method": "POST",
      "url": "Observation",
      "ifNoneExist": "identifier=https://mein.krankenhaus.de/fhir/NamingSystem/observationId|172b414f9b2582faad39a016b159d755e4c01110407363d94cdd3b55cf6da87a"
    }
  }, {
    "fullUrl": "Observation/5a48c788b8c4c4cf59f77c43d12d183740947497da77ddfbd8a93dfe97aae849",
    "resource": {
      "resourceType": "Observation",
      "meta": {
        "profile": [ "https://www.medizininformatik-initiative.de/fhir/core/modul-labor/StructureDefinition/ObservationLab" ]
      },
      "identifier": [ {
        "type": {
          "coding": [ {
            "system": "http://terminology.hl7.org/CodeSystem/v2-0203",
            "code": "OBI",
            "display": "Observation Instance Identifier"
          } ]
        },
        "system": "https://mein.krankenhaus.de/fhir/NamingSystem/observationId",
        "value": "cf30d6e7c413225d8aecbaaa4218a81e3ff915a0dc75ff1e0dd58a5094efe6c5",
        "assigner": {
          "reference": "Organization/3a4f3433bce81181bad2d8e0b8fafccf7dc800bc06f29be73dcb38b750a48f9a"
        }
      } ],
      "status": "final",
      "category": [ {
        "coding": [ {
          "system": "http://terminology.hl7.org/CodeSystem/observation-category",
          "code": "laboratory",
          "display": "Laboratory"
        }, {
          "system": "http://loinc.org",
          "code": "26436-6"
        } ]
      } ],
      "code": {
        "coding": [ {
          "system": "http://loinc.org",
          "code": "731-0",
          "display": "lymphocytes-in-blood-by-automated-count"
        } ],
        "text": "lymphozyten_absolut"
      },
      "subject": {
        "reference": "Patient/a8049a191013251ddc3044a0a349c06ef544bdc4a2a07cc80ce470ce73b94eb8"
      },
      "encounter": {
        "reference": "Encounter/9b494e3fc8734e35d6ac69d212bd41d19f0235e55a741f28dfbd47085e16e5d7"
      },
      "effectiveDateTime": "2020-12-07T02:11:00+00:00",
      "valueQuantity": {
        "value": 5.782823179082142,
        "unit": "10*3/uL",
        "system": "http://unitsofmeasure.org",
        "code": "10*3/uL"
      }
    },
    "request": {
      "method": "POST",
      "url": "Observation",
      "ifNoneExist": "identifier=https://mein.krankenhaus.de/fhir/NamingSystem/observationId|5a48c788b8c4c4cf59f77c43d12d183740947497da77ddfbd8a93dfe97aae849"
    }
  }, {
    "fullUrl": "Observation/8db361a7835096009df940452c2dc91cdfd89e1f8c6edc558610955fb4c74648",
    "resource": {
      "resourceType": "Observation",
      "meta": {
        "profile": [ "https://www.medizininformatik-initiative.de/fhir/core/modul-labor/StructureDefinition/ObservationLab" ]
      },
      "identifier": [ {
        "type": {
          "coding": [ {
            "system": "http://terminology.hl7.org/CodeSystem/v2-0203",
            "code": "OBI",
            "display": "Observation Instance Identifier"
          } ]
        },
        "system": "https://mein.krankenhaus.de/fhir/NamingSystem/observationId",
        "value": "cb8743caf52969cea770e1fe60658b1ac95f5f6d6354633e3b4d4f75c4821522",
        "assigner": {
          "reference": "Organization/3a4f3433bce81181bad2d8e0b8fafccf7dc800bc06f29be73dcb38b750a48f9a"
        }
      } ],
      "status": "final",
      "category": [ {
        "coding": [ {
          "system": "http://terminology.hl7.org/CodeSystem/observation-category",
          "code": "laboratory",
          "display": "Laboratory"
        }, {
          "system": "http://loinc.org",
          "code": "26436-6"
        } ]
      } ],
      "code": {
        "coding": [ {
          "system": "http://loinc.org",
          "code": "26499-4",
          "display": "neutrophils-in-blood"
        } ],
        "text": "neutrophile_absolut"
      },
      "subject": {
        "reference": "Patient/a8049a191013251ddc3044a0a349c06ef544bdc4a2a07cc80ce470ce73b94eb8"
      },
      "encounter": {
        "reference": "Encounter/9b494e3fc8734e35d6ac69d212bd41d19f0235e55a741f28dfbd47085e16e5d7"
      },
      "effectiveDateTime": "2020-12-07T02:11:00+00:00",
      "valueQuantity": {
        "value": 73.07094772911944,
        "unit": "10*3/uL",
        "system": "http://unitsofmeasure.org",
        "code": "10*3/uL"
      }
    },
    "request": {
      "method": "POST",
      "url": "Observation",
      "ifNoneExist": "identifier=https://mein.krankenhaus.de/fhir/NamingSystem/observationId|8db361a7835096009df940452c2dc91cdfd89e1f8c6edc558610955fb4c74648"
    }
  }, {
    "fullUrl": "Observation/e597a356a8954e74c0c55e394108c89283170673c9bb2f32a414e92fa17cd86f",
    "resource": {
      "resourceType": "Observation",
      "meta": {
        "profile": [ "https://www.medizininformatik-initiative.de/fhir/core/modul-labor/StructureDefinition/ObservationLab" ]
      },
      "identifier": [ {
        "type": {
          "coding": [ {
            "system": "http://terminology.hl7.org/CodeSystem/v2-0203",
            "code": "OBI",
            "display": "Observation Instance Identifier"
          } ]
        },
        "system": "https://mein.krankenhaus.de/fhir/NamingSystem/observationId",
        "value": "c991d5da28fe1f46bf91c4f52e4aca4b7c367244345e77940a6cb933c37eb003",
        "assigner": {
          "reference": "Organization/3a4f3433bce81181bad2d8e0b8fafccf7dc800bc06f29be73dcb38b750a48f9a"
        }
      } ],
      "status": "final",
      "category": [ {
        "coding": [ {
          "system": "http://terminology.hl7.org/CodeSystem/observation-category",
          "code": "laboratory",
          "display": "Laboratory"
        }, {
          "system": "http://loinc.org",
          "code": "26436-6"
        } ]
      } ],
      "code": {
        "coding": [ {
          "system": "http://loinc.org",
          "code": "16631-4"
        }, {
          "system": "http://loinc.org",
          "code": "43734-3"
        }, {
          "system": "http://loinc.org",
          "code": "14979-9"
        }, {
          "system": "http://loinc.org",
          "code": "3173-2"
        } ],
        "text": "ptt"
      },
      "subject": {
        "reference": "Patient/a8049a191013251ddc3044a0a349c06ef544bdc4a2a07cc80ce470ce73b94eb8"
      },
      "encounter": {
        "reference": "Encounter/9b494e3fc8734e35d6ac69d212bd41d19f0235e55a741f28dfbd47085e16e5d7"
      },
      "effectiveDateTime": "2020-12-07T02:11:00+00:00",
      "valueQuantity": {
        "value": 10.545208008733297,
        "unit": "s",
        "system": "http://unitsofmeasure.org",
        "code": "s"
      }
    },
    "request": {
      "method": "POST",
      "url": "Observation",
      "ifNoneExist": "identifier=https://mein.krankenhaus.de/fhir/NamingSystem/observationId|e597a356a8954e74c0c55e394108c89283170673c9bb2f32a414e92fa17cd86f"
    }
  }, {
    "fullUrl": "Observation/ecb2ef9c51a1deef5b5877a7e410035441e02648b5748f59eae8fed7807958cc",
    "resource": {
      "resourceType": "Observation",
      "meta": {
        "profile": [ "https://www.medizininformatik-initiative.de/fhir/core/modul-labor/StructureDefinition/ObservationLab" ]
      },
      "identifier": [ {
        "type": {
          "coding": [ {
            "system": "http://terminology.hl7.org/CodeSystem/v2-0203",
            "code": "OBI",
            "display": "Observation Instance Identifier"
          } ]
        },
        "system": "https://mein.krankenhaus.de/fhir/NamingSystem/observationId",
        "value": "a7a21793d408ad63de66cb0f1b6fff995e2bc4ad6d27fc3c339afe52726aca53",
        "assigner": {
          "reference": "Organization/3a4f3433bce81181bad2d8e0b8fafccf7dc800bc06f29be73dcb38b750a48f9a"
        }
      } ],
      "status": "final",
      "category": [ {
        "coding": [ {
          "system": "http://terminology.hl7.org/CodeSystem/observation-category",
          "code": "laboratory",
          "display": "Laboratory"
        }, {
          "system": "http://loinc.org",
          "code": "26436-6"
        } ]
      } ],
      "code": {
        "coding": [ {
          "system": "http://loinc.org",
          "code": "74775-8",
          "display": "platelets-in-platelet-rich-plasma-by-automated-count"
        } ],
        "text": "thrombozyten_absolut"
      },
      "subject": {
        "reference": "Patient/a8049a191013251ddc3044a0a349c06ef544bdc4a2a07cc80ce470ce73b94eb8"
      },
      "encounter": {
        "reference": "Encounter/9b494e3fc8734e35d6ac69d212bd41d19f0235e55a741f28dfbd47085e16e5d7"
      },
      "effectiveDateTime": "2020-12-07T02:11:00+00:00",
      "valueQuantity": {
        "value": 87.76335622434014,
        "unit": "10*3/uL",
        "system": "http://unitsofmeasure.org",
        "code": "10*3/uL"
      }
    },
    "request": {
      "method": "POST",
      "url": "Observation",
      "ifNoneExist": "identifier=https://mein.krankenhaus.de/fhir/NamingSystem/observationId|ecb2ef9c51a1deef5b5877a7e410035441e02648b5748f59eae8fed7807958cc"
    }
  }, {
    "fullUrl": "Observation/615bade60abc0ca82699e51ecde25a9aa66ed1315f8005d28f2e9cfab1132fa8",
    "resource": {
      "resourceType": "Observation",
      "meta": {
        "profile": [ "https://www.medizininformatik-initiative.de/fhir/core/modul-labor/StructureDefinition/ObservationLab" ]
      },
      "identifier": [ {
        "type": {
          "coding": [ {
            "system": "http://terminology.hl7.org/CodeSystem/v2-0203",
            "code": "OBI",
            "display": "Observation Instance Identifier"
          } ]
        },
        "system": "https://mein.krankenhaus.de/fhir/NamingSystem/observationId",
        "value": "35e3d25f52f52cbf6f01b34a7aba88778d726c49a7b2098bbafba0744f19a6fa",
        "assigner": {
          "reference": "Organization/3a4f3433bce81181bad2d8e0b8fafccf7dc800bc06f29be73dcb38b750a48f9a"
        }
      } ],
      "status": "final",
      "category": [ {
        "coding": [ {
          "system": "http://terminology.hl7.org/CodeSystem/observation-category",
          "code": "laboratory",
          "display": "Laboratory"
        }, {
          "system": "http://loinc.org",
          "code": "26436-6"
        } ]
      } ],
      "code": {
        "coding": [ {
          "system": "http://loinc.org",
          "code": "34714-6",
          "display": "inr-in-blood-by-coagulation-assay"
        } ],
        "text": "inr"
      },
      "subject": {
        "reference": "Patient/a8049a191013251ddc3044a0a349c06ef544bdc4a2a07cc80ce470ce73b94eb8"
      },
      "encounter": {
        "reference": "Encounter/9b494e3fc8734e35d6ac69d212bd41d19f0235e55a741f28dfbd47085e16e5d7"
      },
      "effectiveDateTime": "2020-12-07T02:11:00+00:00",
      "valueQuantity": {
        "value": 10.383511607034478,
        "unit": "{INR}",
        "system": "http://unitsofmeasure.org",
        "code": "{INR}"
      }
    },
    "request": {
      "method": "POST",
      "url": "Observation",
      "ifNoneExist": "identifier=https://mein.krankenhaus.de/fhir/NamingSystem/observationId|615bade60abc0ca82699e51ecde25a9aa66ed1315f8005d28f2e9cfab1132fa8"
    }
  }, {
    "fullUrl": "Observation/0622cdad41d53c2f4d2adbf33282e982fa5c2535c7a8cc84fa6f73721b2666d0",
    "resource": {
      "resourceType": "Observation",
      "meta": {
        "profile": [ "https://www.medizininformatik-initiative.de/fhir/core/modul-labor/StructureDefinition/ObservationLab" ]
      },
      "identifier": [ {
        "type": {
          "coding": [ {
            "system": "http://terminology.hl7.org/CodeSystem/v2-0203",
            "code": "OBI",
            "display": "Observation Instance Identifier"
          } ]
        },
        "system": "https://mein.krankenhaus.de/fhir/NamingSystem/observationId",
        "value": "3187490339c5a0913c2a8b5131f509c0b3d748d7e7ae024b38536ba6ec5d9ac3",
        "assigner": {
          "reference": "Organization/3a4f3433bce81181bad2d8e0b8fafccf7dc800bc06f29be73dcb38b750a48f9a"
        }
      } ],
      "status": "final",
      "category": [ {
        "coding": [ {
          "system": "http://terminology.hl7.org/CodeSystem/observation-category",
          "code": "laboratory",
          "display": "Laboratory"
        }, {
          "system": "http://loinc.org",
          "code": "26436-6"
        } ]
      } ],
      "code": {
        "coding": [ {
          "system": "http://loinc.org",
          "code": "1751-7",
          "display": "albumin-in-serum-or-plasma"
        } ],
        "text": "serumalbumin"
      },
      "subject": {
        "reference": "Patient/a8049a191013251ddc3044a0a349c06ef544bdc4a2a07cc80ce470ce73b94eb8"
      },
      "encounter": {
        "reference": "Encounter/9b494e3fc8734e35d6ac69d212bd41d19f0235e55a741f28dfbd47085e16e5d7"
      },
      "effectiveDateTime": "2020-12-07T02:11:00+00:00",
      "valueQuantity": {
        "value": 87.08244958997014,
        "unit": "g/dL",
        "system": "http://unitsofmeasure.org",
        "code": "g/dL"
      }
    },
    "request": {
      "method": "POST",
      "url": "Observation",
      "ifNoneExist": "identifier=https://mein.krankenhaus.de/fhir/NamingSystem/observationId|0622cdad41d53c2f4d2adbf33282e982fa5c2535c7a8cc84fa6f73721b2666d0"
    }
  }, {
    "fullUrl": "Observation/1407e94b985e41a93382028496fd37e4c9e85c89ea7833062703aaea53da149f",
    "resource": {
      "resourceType": "Observation",
      "meta": {
        "profile": [ "https://www.medizininformatik-initiative.de/fhir/core/modul-labor/StructureDefinition/ObservationLab" ]
      },
      "identifier": [ {
        "type": {
          "coding": [ {
            "system": "http://terminology.hl7.org/CodeSystem/v2-0203",
            "code": "OBI",
            "display": "Observation Instance Identifier"
          } ]
        },
        "system": "https://mein.krankenhaus.de/fhir/NamingSystem/observationId",
        "value": "9954250d8a249b04f453029911994cb3a4d255fa48293321f12ff51bc84bc735",
        "assigner": {
          "reference": "Organization/3a4f3433bce81181bad2d8e0b8fafccf7dc800bc06f29be73dcb38b750a48f9a"
        }
      } ],
      "status": "final",
      "category": [ {
        "coding": [ {
          "system": "http://terminology.hl7.org/CodeSystem/observation-category",
          "code": "laboratory",
          "display": "Laboratory"
        }, {
          "system": "http://loinc.org",
          "code": "26436-6"
        } ]
      } ],
      "code": {
        "coding": [ {
          "system": "http://loinc.org",
          "code": "27812-7",
          "display": "antithrombin-ag-actual-normal-in-platelet-poor-plasma-by-immunoassay"
        } ],
        "text": "antithrombin_iii"
      },
      "subject": {
        "reference": "Patient/a8049a191013251ddc3044a0a349c06ef544bdc4a2a07cc80ce470ce73b94eb8"
      },
      "encounter": {
        "reference": "Encounter/9b494e3fc8734e35d6ac69d212bd41d19f0235e55a741f28dfbd47085e16e5d7"
      },
      "effectiveDateTime": "2020-12-07T02:11:00+00:00",
      "valueQuantity": {
        "value": 83.3951278896756,
        "unit": "%",
        "system": "http://unitsofmeasure.org",
        "code": "%"
      }
    },
    "request": {
      "method": "POST",
      "url": "Observation",
      "ifNoneExist": "identifier=https://mein.krankenhaus.de/fhir/NamingSystem/observationId|1407e94b985e41a93382028496fd37e4c9e85c89ea7833062703aaea53da149f"
    }
  }, {
    "fullUrl": "Observation/ef1333e49dfc10e9d4bf4e6356f19215265b729fd0c73da39a6ff7d7f71e37c5",
    "resource": {
      "resourceType": "Observation",
      "meta": {
        "profile": [ "https://www.medizininformatik-initiative.de/fhir/core/modul-labor/StructureDefinition/ObservationLab" ]
      },
      "identifier": [ {
        "type": {
          "coding": [ {
            "system": "http://terminology.hl7.org/CodeSystem/v2-0203",
            "code": "OBI",
            "display": "Observation Instance Identifier"
          } ]
        },
        "system": "https://mein.krankenhaus.de/fhir/NamingSystem/observationId",
        "value": "e7b462ebc5e5bc9784ac2a828eab186a05cd7050ceb7194395a05aacde1c245a",
        "assigner": {
          "reference": "Organization/3a4f3433bce81181bad2d8e0b8fafccf7dc800bc06f29be73dcb38b750a48f9a"
        }
      } ],
      "status": "final",
      "category": [ {
        "coding": [ {
          "system": "http://terminology.hl7.org/CodeSystem/observation-category",
          "code": "laboratory",
          "display": "Laboratory"
        }, {
          "system": "http://loinc.org",
          "code": "26436-6"
        } ]
      } ],
      "code": {
        "coding": [ {
          "system": "http://loinc.org",
          "code": "33959-8",
          "display": "procalcitonin-in-serum-or-plasma"
        } ],
        "text": "pct_procalcitonin"
      },
      "subject": {
        "reference": "Patient/a8049a191013251ddc3044a0a349c06ef544bdc4a2a07cc80ce470ce73b94eb8"
      },
      "encounter": {
        "reference": "Encounter/9b494e3fc8734e35d6ac69d212bd41d19f0235e55a741f28dfbd47085e16e5d7"
      },
      "effectiveDateTime": "2020-12-07T02:11:00+00:00",
      "valueQuantity": {
        "value": 84.32442354071618,
        "unit": "ng/mL",
        "system": "http://unitsofmeasure.org",
        "code": "ng/mL"
      }
    },
    "request": {
      "method": "POST",
      "url": "Observation",
      "ifNoneExist": "identifier=https://mein.krankenhaus.de/fhir/NamingSystem/observationId|ef1333e49dfc10e9d4bf4e6356f19215265b729fd0c73da39a6ff7d7f71e37c5"
    }
  }, {
    "fullUrl": "Observation/d8c4ec2b4bcc5bd0303114f4c9fa632c3d57d7177fcd8cbf42626efdaa0dcb74",
    "resource": {
      "resourceType": "Observation",
      "meta": {
        "profile": [ "https://www.medizininformatik-initiative.de/fhir/core/modul-labor/StructureDefinition/ObservationLab" ]
      },
      "identifier": [ {
        "type": {
          "coding": [ {
            "system": "http://terminology.hl7.org/CodeSystem/v2-0203",
            "code": "OBI",
            "display": "Observation Instance Identifier"
          } ]
        },
        "system": "https://mein.krankenhaus.de/fhir/NamingSystem/observationId",
        "value": "4b368f1ffccdee24f36d566b195f50eee11c03414f1470f4d09e9e217eb4af35",
        "assigner": {
          "reference": "Organization/3a4f3433bce81181bad2d8e0b8fafccf7dc800bc06f29be73dcb38b750a48f9a"
        }
      } ],
      "status": "final",
      "category": [ {
        "coding": [ {
          "system": "http://terminology.hl7.org/CodeSystem/observation-category",
          "code": "laboratory",
          "display": "Laboratory"
        }, {
          "system": "http://loinc.org",
          "code": "26436-6"
        } ]
      } ],
      "code": {
        "coding": [ {
          "system": "http://loinc.org",
          "code": "44322-6"
        }, {
          "system": "http://loinc.org",
          "code": "26881-3"
        }, {
          "system": "http://loinc.org",
          "code": "49919-4"
        }, {
          "system": "http://loinc.org",
          "code": "49732-1"
        } ],
        "text": "il6_interleukin_6"
      },
      "subject": {
        "reference": "Patient/a8049a191013251ddc3044a0a349c06ef544bdc4a2a07cc80ce470ce73b94eb8"
      },
      "encounter": {
        "reference": "Encounter/9b494e3fc8734e35d6ac69d212bd41d19f0235e55a741f28dfbd47085e16e5d7"
      },
      "effectiveDateTime": "2020-12-07T02:11:00+00:00",
      "valueQuantity": {
        "value": 53.663321593821735,
        "unit": "pg/mL",
        "system": "http://unitsofmeasure.org",
        "code": "pg/mL"
      }
    },
    "request": {
      "method": "POST",
      "url": "Observation",
      "ifNoneExist": "identifier=https://mein.krankenhaus.de/fhir/NamingSystem/observationId|d8c4ec2b4bcc5bd0303114f4c9fa632c3d57d7177fcd8cbf42626efdaa0dcb74"
    }
  }, {
    "fullUrl": "Observation/38c3657740dffec1d8e21d02d564537b57e1edb6cd9b5f06a769ad92c9e6018e",
    "resource": {
      "resourceType": "Observation",
      "meta": {
        "profile": [ "https://www.medizininformatik-initiative.de/fhir/core/modul-labor/StructureDefinition/ObservationLab" ]
      },
      "identifier": [ {
        "type": {
          "coding": [ {
            "system": "http://terminology.hl7.org/CodeSystem/v2-0203",
            "code": "OBI",
            "display": "Observation Instance Identifier"
          } ]
        },
        "system": "https://mein.krankenhaus.de/fhir/NamingSystem/observationId",
        "value": "926d3aa7ae4628c12c69930b81582024c0624166cb3db0d2e75d3a9957b88c48",
        "assigner": {
          "reference": "Organization/3a4f3433bce81181bad2d8e0b8fafccf7dc800bc06f29be73dcb38b750a48f9a"
        }
      } ],
      "status": "final",
      "category": [ {
        "coding": [ {
          "system": "http://terminology.hl7.org/CodeSystem/observation-category",
          "code": "laboratory",
          "display": "Laboratory"
        }, {
          "system": "http://loinc.org",
          "code": "26436-6"
        } ]
      } ],
      "code": {
        "coding": [ {
          "system": "http://loinc.org",
          "code": "83107-3",
          "display": "natriuretic-peptide.b-prohormone-n-terminal-in-serum-or-plasma-by-immunoassay"
        } ],
        "text": "ntprobnp"
      },
      "subject": {
        "reference": "Patient/a8049a191013251ddc3044a0a349c06ef544bdc4a2a07cc80ce470ce73b94eb8"
      },
      "encounter": {
        "reference": "Encounter/9b494e3fc8734e35d6ac69d212bd41d19f0235e55a741f28dfbd47085e16e5d7"
      },
      "effectiveDateTime": "2020-12-07T02:11:00+00:00",
      "valueQuantity": {
        "value": 6.818827420229134,
        "unit": "pg/mL",
        "system": "http://unitsofmeasure.org",
        "code": "pg/mL"
      }
    },
    "request": {
      "method": "POST",
      "url": "Observation",
      "ifNoneExist": "identifier=https://mein.krankenhaus.de/fhir/NamingSystem/observationId|38c3657740dffec1d8e21d02d564537b57e1edb6cd9b5f06a769ad92c9e6018e"
    }
  }, {
    "fullUrl": "Observation/8fef41d06b791be72a6f3476baa984ee9724216b249b7f08377c5ca798289612",
    "resource": {
      "resourceType": "Observation",
      "meta": {
        "profile": [ "https://www.medizininformatik-initiative.de/fhir/core/modul-labor/StructureDefinition/ObservationLab" ]
      },
      "identifier": [ {
        "type": {
          "coding": [ {
            "system": "http://terminology.hl7.org/CodeSystem/v2-0203",
            "code": "OBI",
            "display": "Observation Instance Identifier"
          } ]
        },
        "system": "https://mein.krankenhaus.de/fhir/NamingSystem/observationId",
        "value": "13ffbaa9cd11d3b2c7139bf83df30f6fa8e9a37ecb8fe4f7f1cbae50e487219e",
        "assigner": {
          "reference": "Organization/3a4f3433bce81181bad2d8e0b8fafccf7dc800bc06f29be73dcb38b750a48f9a"
        }
      } ],
      "status": "final",
      "category": [ {
        "coding": [ {
          "system": "http://terminology.hl7.org/CodeSystem/observation-category",
          "code": "laboratory",
          "display": "Laboratory"
        }, {
          "system": "http://loinc.org",
          "code": "26436-6"
        } ]
      } ],
      "code": {
        "coding": [ {
          "system": "http://loinc.org",
          "code": "30902-1",
          "display": "fibrinogen-in-platelet-poor-plasma-by-heat-denaturation"
        } ],
        "text": "fibrinogen"
      },
      "subject": {
        "reference": "Patient/a8049a191013251ddc3044a0a349c06ef544bdc4a2a07cc80ce470ce73b94eb8"
      },
      "encounter": {
        "reference": "Encounter/9b494e3fc8734e35d6ac69d212bd41d19f0235e55a741f28dfbd47085e16e5d7"
      },
      "effectiveDateTime": "2020-12-07T02:11:00+00:00",
      "valueQuantity": {
        "value": 57.87361752951351,
        "unit": "mg/dL",
        "system": "http://unitsofmeasure.org",
        "code": "mg/dL"
      }
    },
    "request": {
      "method": "POST",
      "url": "Observation",
      "ifNoneExist": "identifier=https://mein.krankenhaus.de/fhir/NamingSystem/observationId|8fef41d06b791be72a6f3476baa984ee9724216b249b7f08377c5ca798289612"
    }
  }, {
    "fullUrl": "Observation/7a2cc2ec804ead6d688c45086af82369d8c97ed7e3ec87a74200a9afbfa3629f",
    "resource": {
      "resourceType": "Observation",
      "meta": {
        "profile": [ "https://www.netzwerk-universitaetsmedizin.de/fhir/StructureDefinition/sars-cov-2-rt-pcr" ]
      },
      "identifier": [ {
        "type": {
          "coding": [ {
            "system": "http://terminology.hl7.org/CodeSystem/v2-0203",
            "code": "OBI",
            "display": "Observation Instance Identifier"
          } ]
        },
        "system": "https://mein.krankenhaus.de/fhir/NamingSystem/observationId",
        "value": "a431207b06a4fa130060e29a61e79162d49b2657b9357e71c63d23da125becc3",
        "assigner": {
          "reference": "Organization/3a4f3433bce81181bad2d8e0b8fafccf7dc800bc06f29be73dcb38b750a48f9a"
        }
      } ],
      "status": "final",
      "category": [ {
        "coding": [ {
          "system": "http://terminology.hl7.org/CodeSystem/observation-category",
          "code": "laboratory",
          "display": "Laboratory"
        }, {
          "system": "http://loinc.org",
          "code": "26436-6"
        } ]
      } ],
      "code": {
        "coding": [ {
          "system": "http://loinc.org",
          "code": "94500-6",
          "display": "sars-cov-2-covid-19-rna-in-respiratory-specimen-by-naa-with-probe-detection"
        } ],
        "text": "SARS-CoV-2-RNA (PCR)"
      },
      "subject": {
        "reference": "Patient/a8049a191013251ddc3044a0a349c06ef544bdc4a2a07cc80ce470ce73b94eb8"
      },
      "encounter": {
        "reference": "Encounter/9b494e3fc8734e35d6ac69d212bd41d19f0235e55a741f28dfbd47085e16e5d7"
      },
      "effectiveDateTime": "2020-12-07T02:11:00+00:00",
      "valueCodeableConcept": {
        "coding": [ {
          "system": "http://snomed.info/sct",
          "code": "260415000",
          "display": "Not detected (qualifier value)"
        } ],
        "text": "SARS-CoV-2-RNA negativ"
      }
    },
    "request": {
      "method": "POST",
      "url": "Observation",
      "ifNoneExist": "identifier=https://mein.krankenhaus.de/fhir/NamingSystem/observationId|7a2cc2ec804ead6d688c45086af82369d8c97ed7e3ec87a74200a9afbfa3629f"
    }
  }, {
    "fullUrl": "Observation/0de99b67c07eb70e177b704c495d90a27d5d2392768e267c033f88f0a8f95ca5",
    "resource": {
      "resourceType": "Observation",
      "meta": {
        "profile": [ "https://www.netzwerk-universitaetsmedizin.de/fhir/StructureDefinition/sars-cov-2-ab-pnl-ser-pl-ia" ]
      },
      "identifier": [ {
        "type": {
          "coding": [ {
            "system": "http://terminology.hl7.org/CodeSystem/v2-0203",
            "code": "OBI",
            "display": "Observation Instance Identifier"
          } ]
        },
        "system": "https://mein.krankenhaus.de/fhir/NamingSystem/observationId",
        "value": "26d262e258298e3c5722932a59565f53db48087beb497eab78c6b8b971c3dc5b",
        "assigner": {
          "reference": "Organization/3a4f3433bce81181bad2d8e0b8fafccf7dc800bc06f29be73dcb38b750a48f9a"
        }
      } ],
      "status": "final",
      "category": [ {
        "coding": [ {
          "system": "http://terminology.hl7.org/CodeSystem/observation-category",
          "code": "laboratory",
          "display": "Laboratory"
        }, {
          "system": "http://loinc.org",
          "code": "26436-6"
        } ]
      } ],
      "code": {
        "coding": [ {
          "system": "http://loinc.org",
          "code": "94504-8"
        } ],
        "text": "sarsco_v2_covid19_ab_pnl"
      },
      "subject": {
        "reference": "Patient/a8049a191013251ddc3044a0a349c06ef544bdc4a2a07cc80ce470ce73b94eb8"
      },
      "encounter": {
        "reference": "Encounter/9b494e3fc8734e35d6ac69d212bd41d19f0235e55a741f28dfbd47085e16e5d7"
      },
      "effectiveDateTime": "2020-12-07T02:11:00+00:00",
      "hasMember": [ {
        "reference": "Observation/e622bf982b394c669f10dd0d3690aecf1f9ab88e0aa7ac66eaa232a56d700af7"
      }, {
        "reference": "Observation/8cdbbe9b91c09aca1845a7717f1a9dfc2e8e38fca73d482d6398feda7a4f0065"
      }, {
        "reference": "Observation/9719ecec73c0d597a865afe57fa8078796ca95a73d0afc05cb7bf836e94c8d0a"
      }, {
        "reference": "Observation/44636877ffeab4b6ec6b12cd2a07d1e9ab3b2dc26f926badc8310acb0168e558"
      }, {
        "reference": "Observation/abf68b3e6bfe77e0487e3656986637d57394aafe00d73a483b30f590812d55c1"
      }, {
        "reference": "Observation/df5c1c6561a88f2668c6c50c6ea01269daeafc7cf9e5b628a5a4e4265e2d85c5"
      }, {
        "reference": "Observation/e60595b06ff67db7d249e9e6cf2ecf53b318bb5b1f498c00bd83788c37714889"
      }, {
        "reference": "Observation/74bfe38efd08d583c914d6eabfb4dd0c4270d3bb2c20cc3fce6dc79962f07286"
      } ]
    },
    "request": {
      "method": "POST",
      "url": "Observation",
      "ifNoneExist": "identifier=https://mein.krankenhaus.de/fhir/NamingSystem/observationId|0de99b67c07eb70e177b704c495d90a27d5d2392768e267c033f88f0a8f95ca5"
    }
  }, {
    "fullUrl": "Observation/e622bf982b394c669f10dd0d3690aecf1f9ab88e0aa7ac66eaa232a56d700af7",
    "resource": {
      "resourceType": "Observation",
      "meta": {
        "profile": [ "https://www.netzwerk-universitaetsmedizin.de/fhir/StructureDefinition/sars-cov-2-ab-ser-pl-ql-ia" ]
      },
      "identifier": [ {
        "type": {
          "coding": [ {
            "system": "http://terminology.hl7.org/CodeSystem/v2-0203",
            "code": "OBI",
            "display": "Observation Instance Identifier"
          } ]
        },
        "system": "https://mein.krankenhaus.de/fhir/NamingSystem/observationId",
        "value": "32ff1088b08389dd614a16fbdab9d16da967c12360744faa948589d92ed15a7d",
        "assigner": {
          "reference": "Organization/3a4f3433bce81181bad2d8e0b8fafccf7dc800bc06f29be73dcb38b750a48f9a"
        }
      } ],
      "status": "final",
      "category": [ {
        "coding": [ {
          "system": "http://terminology.hl7.org/CodeSystem/observation-category",
          "code": "laboratory",
          "display": "Laboratory"
        }, {
          "system": "http://loinc.org",
          "code": "26436-6"
        } ]
      } ],
      "code": {
        "coding": [ {
          "system": "http://loinc.org",
          "code": "94762-2",
          "display": "sars-cov-2-covid-19-ab-in-serum-or-plasma-by-immunoassay"
        } ],
        "text": "sarsco_v2_covid19_ab_ia_ql"
      },
      "subject": {
        "reference": "Patient/a8049a191013251ddc3044a0a349c06ef544bdc4a2a07cc80ce470ce73b94eb8"
      },
      "encounter": {
        "reference": "Encounter/9b494e3fc8734e35d6ac69d212bd41d19f0235e55a741f28dfbd47085e16e5d7"
      },
      "effectiveDateTime": "2020-12-07T02:11:00+00:00",
      "valueCodeableConcept": {
        "coding": [ {
          "system": "http://snomed.info/sct",
          "code": "260415000"
        } ]
      }
    },
    "request": {
      "method": "POST",
      "url": "Observation",
      "ifNoneExist": "identifier=https://mein.krankenhaus.de/fhir/NamingSystem/observationId|e622bf982b394c669f10dd0d3690aecf1f9ab88e0aa7ac66eaa232a56d700af7"
    }
  }, {
    "fullUrl": "Observation/8cdbbe9b91c09aca1845a7717f1a9dfc2e8e38fca73d482d6398feda7a4f0065",
    "resource": {
      "resourceType": "Observation",
      "meta": {
        "profile": [ "https://www.netzwerk-universitaetsmedizin.de/fhir/StructureDefinition/sars-cov-2-ab-ser-pl-ia-acnc" ]
      },
      "identifier": [ {
        "type": {
          "coding": [ {
            "system": "http://terminology.hl7.org/CodeSystem/v2-0203",
            "code": "OBI",
            "display": "Observation Instance Identifier"
          } ]
        },
        "system": "https://mein.krankenhaus.de/fhir/NamingSystem/observationId",
        "value": "14c7ce49bfdcbe7add6d62faf087d3033449bef29737c46b5dadae2bcfa333f7",
        "assigner": {
          "reference": "Organization/3a4f3433bce81181bad2d8e0b8fafccf7dc800bc06f29be73dcb38b750a48f9a"
        }
      } ],
      "status": "final",
      "category": [ {
        "coding": [ {
          "system": "http://terminology.hl7.org/CodeSystem/observation-category",
          "code": "laboratory",
          "display": "Laboratory"
        }, {
          "system": "http://loinc.org",
          "code": "26436-6"
        } ]
      } ],
      "code": {
        "coding": [ {
          "system": "http://loinc.org",
          "code": "94769-7",
          "display": "sars-cov-2-covid-19-ab-in-serum-or-plasma-by-immunoassay"
        } ],
        "text": "sarsco_v2_covid19_ab_ia_qn"
      },
      "subject": {
        "reference": "Patient/a8049a191013251ddc3044a0a349c06ef544bdc4a2a07cc80ce470ce73b94eb8"
      },
      "encounter": {
        "reference": "Encounter/9b494e3fc8734e35d6ac69d212bd41d19f0235e55a741f28dfbd47085e16e5d7"
      },
      "effectiveDateTime": "2020-12-07T02:11:00+00:00",
      "valueQuantity": {
        "value": 82.4098255818471,
        "unit": "[IU]/mL",
        "system": "http://unitsofmeasure.org",
        "code": "[IU]/mL"
      }
    },
    "request": {
      "method": "POST",
      "url": "Observation",
      "ifNoneExist": "identifier=https://mein.krankenhaus.de/fhir/NamingSystem/observationId|8cdbbe9b91c09aca1845a7717f1a9dfc2e8e38fca73d482d6398feda7a4f0065"
    }
  }, {
    "fullUrl": "Observation/9719ecec73c0d597a865afe57fa8078796ca95a73d0afc05cb7bf836e94c8d0a",
    "resource": {
      "resourceType": "Observation",
      "meta": {
        "profile": [ "https://www.netzwerk-universitaetsmedizin.de/fhir/StructureDefinition/sars-cov-2-iga-ser-pl-ql-ia" ]
      },
      "identifier": [ {
        "type": {
          "coding": [ {
            "system": "http://terminology.hl7.org/CodeSystem/v2-0203",
            "code": "OBI",
            "display": "Observation Instance Identifier"
          } ]
        },
        "system": "https://mein.krankenhaus.de/fhir/NamingSystem/observationId",
        "value": "9146e658538be26009464d1eceaf332fd16aeafaeb98fa679288876b7ff86b7d",
        "assigner": {
          "reference": "Organization/3a4f3433bce81181bad2d8e0b8fafccf7dc800bc06f29be73dcb38b750a48f9a"
        }
      } ],
      "status": "final",
      "category": [ {
        "coding": [ {
          "system": "http://terminology.hl7.org/CodeSystem/observation-category",
          "code": "laboratory",
          "display": "Laboratory"
        }, {
          "system": "http://loinc.org",
          "code": "26436-6"
        } ]
      } ],
      "code": {
        "coding": [ {
          "system": "http://loinc.org",
          "code": "94562-6",
          "display": "sars-cov-2-covid-19-iga-ab-in-serum-or-plasma-by-immunoassay"
        } ],
        "text": "sarsco_v2_covid19_ig_a_ia_ql"
      },
      "subject": {
        "reference": "Patient/a8049a191013251ddc3044a0a349c06ef544bdc4a2a07cc80ce470ce73b94eb8"
      },
      "encounter": {
        "reference": "Encounter/9b494e3fc8734e35d6ac69d212bd41d19f0235e55a741f28dfbd47085e16e5d7"
      },
      "effectiveDateTime": "2020-12-07T02:11:00+00:00",
      "valueCodeableConcept": {
        "coding": [ {
          "system": "http://snomed.info/sct",
          "code": "260415000"
        } ]
      }
    },
    "request": {
      "method": "POST",
      "url": "Observation",
      "ifNoneExist": "identifier=https://mein.krankenhaus.de/fhir/NamingSystem/observationId|9719ecec73c0d597a865afe57fa8078796ca95a73d0afc05cb7bf836e94c8d0a"
    }
  }, {
    "fullUrl": "Observation/44636877ffeab4b6ec6b12cd2a07d1e9ab3b2dc26f926badc8310acb0168e558",
    "resource": {
      "resourceType": "Observation",
      "meta": {
        "profile": [ "https://www.netzwerk-universitaetsmedizin.de/fhir/StructureDefinition/sars-cov-2-iga-ser-pl-ia-acnc" ]
      },
      "identifier": [ {
        "type": {
          "coding": [ {
            "system": "http://terminology.hl7.org/CodeSystem/v2-0203",
            "code": "OBI",
            "display": "Observation Instance Identifier"
          } ]
        },
        "system": "https://mein.krankenhaus.de/fhir/NamingSystem/observationId",
        "value": "31416883d91421e8eb417c98e2d85f49ea7e7d88fde688989f9e4db511cfe910",
        "assigner": {
          "reference": "Organization/3a4f3433bce81181bad2d8e0b8fafccf7dc800bc06f29be73dcb38b750a48f9a"
        }
      } ],
      "status": "final",
      "category": [ {
        "coding": [ {
          "system": "http://terminology.hl7.org/CodeSystem/observation-category",
          "code": "laboratory",
          "display": "Laboratory"
        }, {
          "system": "http://loinc.org",
          "code": "26436-6"
        } ]
      } ],
      "code": {
        "coding": [ {
          "system": "http://loinc.org",
          "code": "94720-0",
          "display": "sars-cov-2-covid-19-iga-ab-in-serum-or-plasma-by-immunoassay"
        } ],
        "text": "sarsco_v2_covid19_ig_a_ia_qn"
      },
      "subject": {
        "reference": "Patient/a8049a191013251ddc3044a0a349c06ef544bdc4a2a07cc80ce470ce73b94eb8"
      },
      "encounter": {
        "reference": "Encounter/9b494e3fc8734e35d6ac69d212bd41d19f0235e55a741f28dfbd47085e16e5d7"
      },
      "effectiveDateTime": "2020-12-07T02:11:00+00:00",
      "valueQuantity": {
        "value": 67.3739409815742,
        "unit": "[IU]/mL",
        "system": "http://unitsofmeasure.org",
        "code": "[IU]/mL"
      }
    },
    "request": {
      "method": "POST",
      "url": "Observation",
      "ifNoneExist": "identifier=https://mein.krankenhaus.de/fhir/NamingSystem/observationId|44636877ffeab4b6ec6b12cd2a07d1e9ab3b2dc26f926badc8310acb0168e558"
    }
  }, {
    "fullUrl": "Observation/abf68b3e6bfe77e0487e3656986637d57394aafe00d73a483b30f590812d55c1",
    "resource": {
      "resourceType": "Observation",
      "meta": {
        "profile": [ "https://www.netzwerk-universitaetsmedizin.de/fhir/StructureDefinition/sars-cov-2-igg-ser-pl-ql-ia" ]
      },
      "identifier": [ {
        "type": {
          "coding": [ {
            "system": "http://terminology.hl7.org/CodeSystem/v2-0203",
            "code": "OBI",
            "display": "Observation Instance Identifier"
          } ]
        },
        "system": "https://mein.krankenhaus.de/fhir/NamingSystem/observationId",
        "value": "862e9c9c49ace3e8ab5ef62f9a8647d5654e3ce7fff740c3de923dae65579baf",
        "assigner": {
          "reference": "Organization/3a4f3433bce81181bad2d8e0b8fafccf7dc800bc06f29be73dcb38b750a48f9a"
        }
      } ],
      "status": "final",
      "category": [ {
        "coding": [ {
          "system": "http://terminology.hl7.org/CodeSystem/observation-category",
          "code": "laboratory",
          "display": "Laboratory"
        }, {
          "system": "http://loinc.org",
          "code": "26436-6"
        } ]
      } ],
      "code": {
        "coding": [ {
          "system": "http://loinc.org",
          "code": "94563-4",
          "display": "sars-cov-2-covid-19-igg-ab-in-serum-or-plasma-by-immunoassay"
        } ],
        "text": "sarsco_v2_covid19_ig_g_ia_ql"
      },
      "subject": {
        "reference": "Patient/a8049a191013251ddc3044a0a349c06ef544bdc4a2a07cc80ce470ce73b94eb8"
      },
      "encounter": {
        "reference": "Encounter/9b494e3fc8734e35d6ac69d212bd41d19f0235e55a741f28dfbd47085e16e5d7"
      },
      "effectiveDateTime": "2020-12-07T02:11:00+00:00",
      "valueCodeableConcept": {
        "coding": [ {
          "system": "http://snomed.info/sct",
          "code": "260373001"
        } ]
      }
    },
    "request": {
      "method": "POST",
      "url": "Observation",
      "ifNoneExist": "identifier=https://mein.krankenhaus.de/fhir/NamingSystem/observationId|abf68b3e6bfe77e0487e3656986637d57394aafe00d73a483b30f590812d55c1"
    }
  }, {
    "fullUrl": "Observation/df5c1c6561a88f2668c6c50c6ea01269daeafc7cf9e5b628a5a4e4265e2d85c5",
    "resource": {
      "resourceType": "Observation",
      "meta": {
        "profile": [ "https://www.netzwerk-universitaetsmedizin.de/fhir/StructureDefinition/sars-cov-2-igg-ser-pl-ia-acnc" ]
      },
      "identifier": [ {
        "type": {
          "coding": [ {
            "system": "http://terminology.hl7.org/CodeSystem/v2-0203",
            "code": "OBI",
            "display": "Observation Instance Identifier"
          } ]
        },
        "system": "https://mein.krankenhaus.de/fhir/NamingSystem/observationId",
        "value": "6646a1f29a8872f15ef301b2e6df6efa96bbd854a21c07b6c8683c362bda6634",
        "assigner": {
          "reference": "Organization/3a4f3433bce81181bad2d8e0b8fafccf7dc800bc06f29be73dcb38b750a48f9a"
        }
      } ],
      "status": "final",
      "category": [ {
        "coding": [ {
          "system": "http://terminology.hl7.org/CodeSystem/observation-category",
          "code": "laboratory",
          "display": "Laboratory"
        }, {
          "system": "http://loinc.org",
          "code": "26436-6"
        } ]
      } ],
      "code": {
        "coding": [ {
          "system": "http://loinc.org",
          "code": "94505-5",
          "display": "sars-cov-2-covid-19-igg-ab-in-serum-or-plasma-by-immunoassay"
        } ],
        "text": "sarsco_v2_covid19_ig_g_ia_qn"
      },
      "subject": {
        "reference": "Patient/a8049a191013251ddc3044a0a349c06ef544bdc4a2a07cc80ce470ce73b94eb8"
      },
      "encounter": {
        "reference": "Encounter/9b494e3fc8734e35d6ac69d212bd41d19f0235e55a741f28dfbd47085e16e5d7"
      },
      "effectiveDateTime": "2020-12-07T02:11:00+00:00",
      "valueQuantity": {
        "value": 7.502977257406074,
        "unit": "[arb'U]/mL",
        "system": "http://unitsofmeasure.org",
        "code": "[arb'U]/mL"
      }
    },
    "request": {
      "method": "POST",
      "url": "Observation",
      "ifNoneExist": "identifier=https://mein.krankenhaus.de/fhir/NamingSystem/observationId|df5c1c6561a88f2668c6c50c6ea01269daeafc7cf9e5b628a5a4e4265e2d85c5"
    }
  }, {
    "fullUrl": "Observation/e60595b06ff67db7d249e9e6cf2ecf53b318bb5b1f498c00bd83788c37714889",
    "resource": {
      "resourceType": "Observation",
      "meta": {
        "profile": [ "https://www.netzwerk-universitaetsmedizin.de/fhir/StructureDefinition/sars-cov-2-igm-ser-pl-ql-ia" ]
      },
      "identifier": [ {
        "type": {
          "coding": [ {
            "system": "http://terminology.hl7.org/CodeSystem/v2-0203",
            "code": "OBI",
            "display": "Observation Instance Identifier"
          } ]
        },
        "system": "https://mein.krankenhaus.de/fhir/NamingSystem/observationId",
        "value": "ab2c43184178403e5f3a98e72756ee65280e70f14f2e56713f3a19aca31be686",
        "assigner": {
          "reference": "Organization/3a4f3433bce81181bad2d8e0b8fafccf7dc800bc06f29be73dcb38b750a48f9a"
        }
      } ],
      "status": "final",
      "category": [ {
        "coding": [ {
          "system": "http://terminology.hl7.org/CodeSystem/observation-category",
          "code": "laboratory",
          "display": "Laboratory"
        }, {
          "system": "http://loinc.org",
          "code": "26436-6"
        } ]
      } ],
      "code": {
        "coding": [ {
          "system": "http://loinc.org",
          "code": "94564-2",
          "display": "sars-cov-2-covid-19-igm-ab-in-serum-or-plasma-by-immunoassay"
        } ],
        "text": "sarsco_v2_covid19_ig_m_ia_ql"
      },
      "subject": {
        "reference": "Patient/a8049a191013251ddc3044a0a349c06ef544bdc4a2a07cc80ce470ce73b94eb8"
      },
      "encounter": {
        "reference": "Encounter/9b494e3fc8734e35d6ac69d212bd41d19f0235e55a741f28dfbd47085e16e5d7"
      },
      "effectiveDateTime": "2020-12-07T02:11:00+00:00",
      "valueCodeableConcept": {
        "coding": [ {
          "system": "http://snomed.info/sct",
          "code": "260373001"
        } ]
      }
    },
    "request": {
      "method": "POST",
      "url": "Observation",
      "ifNoneExist": "identifier=https://mein.krankenhaus.de/fhir/NamingSystem/observationId|e60595b06ff67db7d249e9e6cf2ecf53b318bb5b1f498c00bd83788c37714889"
    }
  }, {
    "fullUrl": "Observation/74bfe38efd08d583c914d6eabfb4dd0c4270d3bb2c20cc3fce6dc79962f07286",
    "resource": {
      "resourceType": "Observation",
      "meta": {
        "profile": [ "https://www.netzwerk-universitaetsmedizin.de/fhir/StructureDefinition/sars-cov-2-igm-ser-pl-ia-acnc" ]
      },
      "identifier": [ {
        "type": {
          "coding": [ {
            "system": "http://terminology.hl7.org/CodeSystem/v2-0203",
            "code": "OBI",
            "display": "Observation Instance Identifier"
          } ]
        },
        "system": "https://mein.krankenhaus.de/fhir/NamingSystem/observationId",
        "value": "c34fedc3b50e21a3be89ceb6ebc45ae93161795dd9b1703dd32191b69b5d8314",
        "assigner": {
          "reference": "Organization/3a4f3433bce81181bad2d8e0b8fafccf7dc800bc06f29be73dcb38b750a48f9a"
        }
      } ],
      "status": "final",
      "category": [ {
        "coding": [ {
          "system": "http://terminology.hl7.org/CodeSystem/observation-category",
          "code": "laboratory",
          "display": "Laboratory"
        }, {
          "system": "http://loinc.org",
          "code": "26436-6"
        } ]
      } ],
      "code": {
        "coding": [ {
          "system": "http://loinc.org",
          "code": "94506-3",
          "display": "sars-cov-2-covid-19-igm-ab-in-serum-or-plasma-by-immunoassay"
        } ],
        "text": "sarsco_v2_covid19_ig_m_ia_qn"
      },
      "subject": {
        "reference": "Patient/a8049a191013251ddc3044a0a349c06ef544bdc4a2a07cc80ce470ce73b94eb8"
      },
      "encounter": {
        "reference": "Encounter/9b494e3fc8734e35d6ac69d212bd41d19f0235e55a741f28dfbd47085e16e5d7"
      },
      "effectiveDateTime": "2020-12-07T02:11:00+00:00",
      "valueQuantity": {
        "value": 77.97364940527387,
        "unit": "[arb'U]/mL",
        "system": "http://unitsofmeasure.org",
        "code": "[arb'U]/mL"
      }
    },
    "request": {
      "method": "POST",
      "url": "Observation",
      "ifNoneExist": "identifier=https://mein.krankenhaus.de/fhir/NamingSystem/observationId|74bfe38efd08d583c914d6eabfb4dd0c4270d3bb2c20cc3fce6dc79962f07286"
    }
  }, {
    "fullUrl": "MedicationStatement/4d8f1785e6bc80ec5a6635776e714bfd31ef2d12d7a1761920058be31d7d08af",
    "resource": {
      "resourceType": "MedicationStatement",
      "meta": {
        "profile": [ "https://www.netzwerk-universitaetsmedizin.de/fhir/StructureDefinition/pharmacological-therapy" ]
      },
      "identifier": [ {
        "system": "https://mein.krankenhaus.de/fhir/NamingSystem/medicationstatementId",
        "value": "b5f1968bc4ffa965555cab0e46de454e7dc4b89232df3932b4637d234326224f"
      } ],
      "status": "unknown",
      "medicationCodeableConcept": {
        "coding": [ {
          "system": "http://fhir.de/CodeSystem/dimdi/atc",
          "code": "N02B"
        }, {
          "system": "https://www.netzwerk-universitaetsmedizin.de/fhir/CodeSystem/ecrf-parameter-codes",
          "code": "antipyretic"
        } ]
      },
      "subject": {
        "reference": "Patient/a8049a191013251ddc3044a0a349c06ef544bdc4a2a07cc80ce470ce73b94eb8"
      },
      "effectiveDateTime": "2020-10-06T07:52:00+00:00"
    },
    "request": {
      "method": "POST",
      "url": "MedicationStatement",
      "ifNoneExist": "identifier=https://mein.krankenhaus.de/fhir/NamingSystem/medicationstatementId|4d8f1785e6bc80ec5a6635776e714bfd31ef2d12d7a1761920058be31d7d08af"
    }
  }, {
    "fullUrl": "MedicationStatement/37c9763b350970665e29ada9d21ba787056ef924f585596ef7d0ddf2053bd4c4",
    "resource": {
      "resourceType": "MedicationStatement",
      "meta": {
        "profile": [ "https://www.netzwerk-universitaetsmedizin.de/fhir/StructureDefinition/pharmacological-therapy" ]
      },
      "identifier": [ {
        "system": "https://mein.krankenhaus.de/fhir/NamingSystem/medicationstatementId",
        "value": "0bbbb8a2db8d6a093002f84b55011035059203789958716c66af280f9f14e704"
      } ],
      "status": "unknown",
      "medicationCodeableConcept": {
        "coding": [ {
          "system": "http://fhir.de/CodeSystem/dimdi/atc",
          "code": "G01B"
        }, {
          "system": "http://fhir.de/CodeSystem/dimdi/atc",
          "code": "H02"
        }, {
          "system": "http://fhir.de/CodeSystem/dimdi/atc",
          "code": "M01BA"
        }, {
          "system": "http://fhir.de/CodeSystem/dimdi/atc",
          "code": "R03AK"
        }, {
          "system": "http://fhir.de/CodeSystem/dimdi/atc",
          "code": "S02B"
        }, {
          "system": "http://fhir.de/CodeSystem/dimdi/atc",
          "code": "R03AL"
        }, {
          "system": "http://snomed.info/sct",
          "code": "768759001"
        } ]
      },
      "subject": {
        "reference": "Patient/a8049a191013251ddc3044a0a349c06ef544bdc4a2a07cc80ce470ce73b94eb8"
      },
      "effectiveDateTime": "2020-10-06T07:52:00+00:00"
    },
    "request": {
      "method": "POST",
      "url": "MedicationStatement",
      "ifNoneExist": "identifier=https://mein.krankenhaus.de/fhir/NamingSystem/medicationstatementId|37c9763b350970665e29ada9d21ba787056ef924f585596ef7d0ddf2053bd4c4"
    }
  }, {
    "fullUrl": "MedicationStatement/0531c6175a0c08005d388f82b13ce1698542e3d1e628b1bc891a0f5430ae2520",
    "resource": {
      "resourceType": "MedicationStatement",
      "meta": {
        "profile": [ "https://www.netzwerk-universitaetsmedizin.de/fhir/StructureDefinition/pharmacological-therapy" ]
      },
      "identifier": [ {
        "system": "https://mein.krankenhaus.de/fhir/NamingSystem/medicationstatementId",
        "value": "d4043a0ee17f46dabf3a6c3801db605dc784d7320186d562e0bfd0a3ce94fb42"
      } ],
      "status": "active",
      "medicationCodeableConcept": {
        "coding": [ {
          "system": "http://fhir.de/CodeSystem/dimdi/atc",
          "code": "J05AE08"
        } ]
      },
      "subject": {
        "reference": "Patient/a8049a191013251ddc3044a0a349c06ef544bdc4a2a07cc80ce470ce73b94eb8"
      },
      "effectiveDateTime": "2020-10-06T07:52:00+00:00"
    },
    "request": {
      "method": "POST",
      "url": "MedicationStatement",
      "ifNoneExist": "identifier=https://mein.krankenhaus.de/fhir/NamingSystem/medicationstatementId|0531c6175a0c08005d388f82b13ce1698542e3d1e628b1bc891a0f5430ae2520"
    }
  }, {
    "fullUrl": "MedicationStatement/8089c4799d31eacbb135738ffda08bd890722d8f65dfa51467f0de6252890cfb",
    "resource": {
      "resourceType": "MedicationStatement",
      "meta": {
        "profile": [ "https://www.netzwerk-universitaetsmedizin.de/fhir/StructureDefinition/pharmacological-therapy" ]
      },
      "identifier": [ {
        "system": "https://mein.krankenhaus.de/fhir/NamingSystem/medicationstatementId",
        "value": "7e316db234bc193302bb71a7d099aeb716f0dca2e5d3df16c2aaca5d798d905a"
      } ],
      "status": "not-taken",
      "medicationCodeableConcept": {
        "coding": [ {
          "system": "http://fhir.de/CodeSystem/dimdi/atc",
          "code": "J05AR22"
        }, {
          "system": "http://fhir.de/CodeSystem/dimdi/atc",
          "code": "J05AE10"
        }, {
          "system": "http://fhir.de/CodeSystem/dimdi/atc",
          "code": "J05AR14"
        }, {
          "system": "http://snomed.info/sct",
          "code": "424096001"
        } ]
      },
      "subject": {
        "reference": "Patient/a8049a191013251ddc3044a0a349c06ef544bdc4a2a07cc80ce470ce73b94eb8"
      },
      "effectiveDateTime": "2020-10-06T07:52:00+00:00"
    },
    "request": {
      "method": "POST",
      "url": "MedicationStatement",
      "ifNoneExist": "identifier=https://mein.krankenhaus.de/fhir/NamingSystem/medicationstatementId|8089c4799d31eacbb135738ffda08bd890722d8f65dfa51467f0de6252890cfb"
    }
  }, {
    "fullUrl": "MedicationStatement/207c3b43fe556e50ea4c3cd00a37b13630787e31929be2dc917a62472579f285",
    "resource": {
      "resourceType": "MedicationStatement",
      "meta": {
        "profile": [ "https://www.netzwerk-universitaetsmedizin.de/fhir/StructureDefinition/pharmacological-therapy" ]
      },
      "identifier": [ {
        "system": "https://mein.krankenhaus.de/fhir/NamingSystem/medicationstatementId",
        "value": "687e3566460f3384e0446d4292dbd155393c766d7af04cdf8c6098598bc24ad0"
      } ],
      "status": "unknown",
      "medicationCodeableConcept": {
        "coding": [ {
          "system": "http://fhir.de/CodeSystem/dimdi/atc",
          "code": "P01BA01"
        }, {
          "system": "http://snomed.info/sct",
          "code": "14728000"
        } ]
      },
      "subject": {
        "reference": "Patient/a8049a191013251ddc3044a0a349c06ef544bdc4a2a07cc80ce470ce73b94eb8"
      },
      "effectiveDateTime": "2020-10-06T07:52:00+00:00"
    },
    "request": {
      "method": "POST",
      "url": "MedicationStatement",
      "ifNoneExist": "identifier=https://mein.krankenhaus.de/fhir/NamingSystem/medicationstatementId|207c3b43fe556e50ea4c3cd00a37b13630787e31929be2dc917a62472579f285"
    }
  }, {
    "fullUrl": "MedicationStatement/6bffcdcfc7f56f84f12a6f870caa3f5b8c2b071c4624850a779553c3a0a0d129",
    "resource": {
      "resourceType": "MedicationStatement",
      "meta": {
        "profile": [ "https://www.netzwerk-universitaetsmedizin.de/fhir/StructureDefinition/pharmacological-therapy" ]
      },
      "identifier": [ {
        "system": "https://mein.krankenhaus.de/fhir/NamingSystem/medicationstatementId",
        "value": "6e27cfd582a8d7b0b6e1e149d44d68c7d9579e2262e38c6b0c918d4b80a63f8a"
      } ],
      "status": "active",
      "medicationCodeableConcept": {
        "coding": [ {
          "system": "http://fhir.de/CodeSystem/dimdi/atc",
          "code": "P01BA02"
        }, {
          "system": "http://snomed.info/sct",
          "code": "83490000"
        } ]
      },
      "subject": {
        "reference": "Patient/a8049a191013251ddc3044a0a349c06ef544bdc4a2a07cc80ce470ce73b94eb8"
      },
      "effectiveDateTime": "2020-10-06T07:52:00+00:00"
    },
    "request": {
      "method": "POST",
      "url": "MedicationStatement",
      "ifNoneExist": "identifier=https://mein.krankenhaus.de/fhir/NamingSystem/medicationstatementId|6bffcdcfc7f56f84f12a6f870caa3f5b8c2b071c4624850a779553c3a0a0d129"
    }
  }, {
    "fullUrl": "MedicationStatement/0bca488831fd7b55f955bfe2fedfc5a74d6e808779f26aadbf27d615babf7ffd",
    "resource": {
      "resourceType": "MedicationStatement",
      "meta": {
        "profile": [ "https://www.netzwerk-universitaetsmedizin.de/fhir/StructureDefinition/pharmacological-therapy" ]
      },
      "identifier": [ {
        "system": "https://mein.krankenhaus.de/fhir/NamingSystem/medicationstatementId",
        "value": "566dfd5d6252058e6d3bd6936debaa007269686bce4acde3716d50aed2385313"
      } ],
      "status": "unknown",
      "medicationCodeableConcept": {
        "coding": [ {
          "system": "http://fhir.de/CodeSystem/dimdi/atc",
          "code": "D11AX22"
        }, {
          "system": "http://fhir.de/CodeSystem/dimdi/atc",
          "code": "P02CF01"
        }, {
          "system": "http://snomed.info/sct",
          "code": "96138006"
        } ]
      },
      "subject": {
        "reference": "Patient/a8049a191013251ddc3044a0a349c06ef544bdc4a2a07cc80ce470ce73b94eb8"
      },
      "effectiveDateTime": "2020-10-06T07:52:00+00:00"
    },
    "request": {
      "method": "POST",
      "url": "MedicationStatement",
      "ifNoneExist": "identifier=https://mein.krankenhaus.de/fhir/NamingSystem/medicationstatementId|0bca488831fd7b55f955bfe2fedfc5a74d6e808779f26aadbf27d615babf7ffd"
    }
  }, {
    "fullUrl": "MedicationStatement/655bfda11dcb1bacddccfcb2a63dda3522a1edd2d6ef170936208b9a9695c218",
    "resource": {
      "resourceType": "MedicationStatement",
      "meta": {
        "profile": [ "https://www.netzwerk-universitaetsmedizin.de/fhir/StructureDefinition/pharmacological-therapy" ]
      },
      "identifier": [ {
        "system": "https://mein.krankenhaus.de/fhir/NamingSystem/medicationstatementId",
        "value": "d67dd20410dc398f41eddc9cef7d19a8bc94e8c760f43affa34005f769eb13e2"
      } ],
      "status": "not-taken",
      "medicationCodeableConcept": {
        "coding": [ {
          "system": "http://fhir.de/CodeSystem/dimdi/atc",
          "code": "J05AR10"
        }, {
          "system": "http://snomed.info/sct",
          "code": "134573001"
        } ]
      },
      "subject": {
        "reference": "Patient/a8049a191013251ddc3044a0a349c06ef544bdc4a2a07cc80ce470ce73b94eb8"
      },
      "effectiveDateTime": "2020-10-06T07:52:00+00:00"
    },
    "request": {
      "method": "POST",
      "url": "MedicationStatement",
      "ifNoneExist": "identifier=https://mein.krankenhaus.de/fhir/NamingSystem/medicationstatementId|655bfda11dcb1bacddccfcb2a63dda3522a1edd2d6ef170936208b9a9695c218"
    }
  }, {
    "fullUrl": "MedicationStatement/e3e22d8ae8c360c9d385e1a791185ff2bfd3699e66756b8b3633780145061f59",
    "resource": {
      "resourceType": "MedicationStatement",
      "meta": {
        "profile": [ "https://www.netzwerk-universitaetsmedizin.de/fhir/StructureDefinition/pharmacological-therapy" ]
      },
      "identifier": [ {
        "system": "https://mein.krankenhaus.de/fhir/NamingSystem/medicationstatementId",
        "value": "532c46916fe5026c6e650aa3ca91db81002a8212ca49be6c417d0e9aa18fc226"
      } ],
      "status": "not-taken",
      "medicationCodeableConcept": {
        "coding": [ {
          "system": "http://fhir.de/CodeSystem/dimdi/atc",
          "code": "J05AB06"
        }, {
          "system": "http://fhir.de/CodeSystem/dimdi/atc",
          "code": "S01AD09"
        }, {
          "system": "http://snomed.info/sct",
          "code": "78025001"
        } ]
      },
      "subject": {
        "reference": "Patient/a8049a191013251ddc3044a0a349c06ef544bdc4a2a07cc80ce470ce73b94eb8"
      },
      "effectiveDateTime": "2020-10-06T07:52:00+00:00"
    },
    "request": {
      "method": "POST",
      "url": "MedicationStatement",
      "ifNoneExist": "identifier=https://mein.krankenhaus.de/fhir/NamingSystem/medicationstatementId|e3e22d8ae8c360c9d385e1a791185ff2bfd3699e66756b8b3633780145061f59"
    }
  }, {
    "fullUrl": "MedicationStatement/e781c82e8c0ac5c9c2505d2b1adffe475b6b52d1faf30e21b816f4b40693954f",
    "resource": {
      "resourceType": "MedicationStatement",
      "meta": {
        "profile": [ "https://www.netzwerk-universitaetsmedizin.de/fhir/StructureDefinition/pharmacological-therapy" ]
      },
      "identifier": [ {
        "system": "https://mein.krankenhaus.de/fhir/NamingSystem/medicationstatementId",
        "value": "5324be8e4582b4ce0abccb39df822151b9554810f0cd472cb2a44068a59a914a"
      } ],
      "status": "unknown",
      "medicationCodeableConcept": {
        "coding": [ {
          "system": "http://fhir.de/CodeSystem/dimdi/atc",
          "code": "J05AH02"
        }, {
          "system": "http://snomed.info/sct",
          "code": "386142008"
        } ]
      },
      "subject": {
        "reference": "Patient/a8049a191013251ddc3044a0a349c06ef544bdc4a2a07cc80ce470ce73b94eb8"
      },
      "effectiveDateTime": "2020-10-06T07:52:00+00:00"
    },
    "request": {
      "method": "POST",
      "url": "MedicationStatement",
      "ifNoneExist": "identifier=https://mein.krankenhaus.de/fhir/NamingSystem/medicationstatementId|e781c82e8c0ac5c9c2505d2b1adffe475b6b52d1faf30e21b816f4b40693954f"
    }
  }, {
    "fullUrl": "MedicationStatement/bdb1111da0d8a638ade13169ce960c1468d929a418ba841d9c51c71d7e622d22",
    "resource": {
      "resourceType": "MedicationStatement",
      "meta": {
        "profile": [ "https://www.netzwerk-universitaetsmedizin.de/fhir/StructureDefinition/pharmacological-therapy" ]
      },
      "identifier": [ {
        "system": "https://mein.krankenhaus.de/fhir/NamingSystem/medicationstatementId",
        "value": "4cccb275a57a619b0d6275e76b54432b1b5ec5fbee26c465547ece92f04a0d44"
      } ],
      "status": "not-taken",
      "medicationCodeableConcept": {
        "coding": [ {
          "system": "http://fdasis.nlm.nih.gov",
          "code": "3QKI37EEHE"
        }, {
          "system": "http://snomed.info/sct",
          "code": "870518005"
        } ]
      },
      "subject": {
        "reference": "Patient/a8049a191013251ddc3044a0a349c06ef544bdc4a2a07cc80ce470ce73b94eb8"
      },
      "effectiveDateTime": "2020-10-06T07:52:00+00:00"
    },
    "request": {
      "method": "POST",
      "url": "MedicationStatement",
      "ifNoneExist": "identifier=https://mein.krankenhaus.de/fhir/NamingSystem/medicationstatementId|bdb1111da0d8a638ade13169ce960c1468d929a418ba841d9c51c71d7e622d22"
    }
  }, {
    "fullUrl": "MedicationStatement/642971ee8e0af88b838ffd393c5bcce15f10c042daa92afe93effd817ca98324",
    "resource": {
      "resourceType": "MedicationStatement",
      "meta": {
        "profile": [ "https://www.netzwerk-universitaetsmedizin.de/fhir/StructureDefinition/pharmacological-therapy" ]
      },
      "identifier": [ {
        "system": "https://mein.krankenhaus.de/fhir/NamingSystem/medicationstatementId",
        "value": "64ef958ebc791db15741bf282c4b1da6e18b7e05ada554e4dbdee5588054b688"
      } ],
      "status": "not-taken",
      "medicationCodeableConcept": {
        "coding": [ {
          "system": "http://fhir.de/CodeSystem/dimdi/atc",
          "code": "J05AP01"
        }, {
          "system": "http://snomed.info/sct",
          "code": "35063004"
        } ]
      },
      "subject": {
        "reference": "Patient/a8049a191013251ddc3044a0a349c06ef544bdc4a2a07cc80ce470ce73b94eb8"
      },
      "effectiveDateTime": "2020-10-06T07:52:00+00:00"
    },
    "request": {
      "method": "POST",
      "url": "MedicationStatement",
      "ifNoneExist": "identifier=https://mein.krankenhaus.de/fhir/NamingSystem/medicationstatementId|642971ee8e0af88b838ffd393c5bcce15f10c042daa92afe93effd817ca98324"
    }
  }, {
    "fullUrl": "MedicationStatement/c647b0a2a35b7801ee5db69e27c0b0f9f4f154f9f9c73c926fcb4fb4029c732a",
    "resource": {
      "resourceType": "MedicationStatement",
      "meta": {
        "profile": [ "https://www.netzwerk-universitaetsmedizin.de/fhir/StructureDefinition/pharmacological-therapy" ]
      },
      "identifier": [ {
        "system": "https://mein.krankenhaus.de/fhir/NamingSystem/medicationstatementId",
        "value": "0c564e278776db72bf6639383dcd63d9c88efec6b36ece6d07b710d2373e6c4c"
      } ],
      "status": "unknown",
      "medicationCodeableConcept": {
        "coding": [ {
          "system": "http://fhir.de/CodeSystem/dimdi/atc",
          "code": "B02AB04"
        }, {
          "system": "https://www.netzwerk-universitaetsmedizin.de/fhir/CodeSystem/ecrf-parameter-codes",
          "code": "camostat"
        } ]
      },
      "subject": {
        "reference": "Patient/a8049a191013251ddc3044a0a349c06ef544bdc4a2a07cc80ce470ce73b94eb8"
      },
      "effectiveDateTime": "2020-10-06T07:52:00+00:00"
    },
    "request": {
      "method": "POST",
      "url": "MedicationStatement",
      "ifNoneExist": "identifier=https://mein.krankenhaus.de/fhir/NamingSystem/medicationstatementId|c647b0a2a35b7801ee5db69e27c0b0f9f4f154f9f9c73c926fcb4fb4029c732a"
    }
  }, {
    "fullUrl": "MedicationStatement/8934551d19bde709a3793952f8dcd0c2614f9eaf88811ec1151ee3f44fbe839c",
    "resource": {
      "resourceType": "MedicationStatement",
      "meta": {
        "profile": [ "https://www.netzwerk-universitaetsmedizin.de/fhir/StructureDefinition/pharmacological-therapy" ]
      },
      "identifier": [ {
        "system": "https://mein.krankenhaus.de/fhir/NamingSystem/medicationstatementId",
        "value": "eca2614918752ad405d42dab07c24224d8533cd760d9181658f77f2619ec4193"
      } ],
      "status": "not-taken",
      "medicationCodeableConcept": {
        "coding": [ {
          "system": "urn:oid:2.16.840.1.113883.6.18.2.6",
          "code": "E9743"
        }, {
          "system": "urn:oid:2.16.840.1.113883.6.18.2.6",
          "code": "E9744"
        }, {
          "system": "urn:oid:2.16.840.1.113883.6.18.2.6",
          "code": "E9745"
        }, {
          "system": "urn:oid:2.16.840.1.113883.6.18.2.6",
          "code": "E9746"
        }, {
          "system": "urn:oid:2.16.840.1.113883.6.18.2.6",
          "code": "E9747"
        }, {
          "system": "urn:oid:2.16.840.1.113883.6.18.2.6",
          "code": "E9748"
        }, {
          "system": "urn:oid:2.16.840.1.113883.6.18.2.6",
          "code": "E9749"
        }, {
          "system": "urn:oid:2.16.840.1.113883.6.18.2.6",
          "code": "E9750"
        }, {
          "system": "urn:oid:2.16.840.1.113883.6.18.2.6",
          "code": "E9752"
        }, {
          "system": "https://www.netzwerk-universitaetsmedizin.de/fhir/CodeSystem/ecrf-parameter-codes",
          "code": "convalescent-plasma"
        } ]
      },
      "subject": {
        "reference": "Patient/a8049a191013251ddc3044a0a349c06ef544bdc4a2a07cc80ce470ce73b94eb8"
      },
      "effectiveDateTime": "2020-10-06T07:52:00+00:00"
    },
    "request": {
      "method": "POST",
      "url": "MedicationStatement",
      "ifNoneExist": "identifier=https://mein.krankenhaus.de/fhir/NamingSystem/medicationstatementId|8934551d19bde709a3793952f8dcd0c2614f9eaf88811ec1151ee3f44fbe839c"
    }
  }, {
    "fullUrl": "MedicationStatement/0892561d5ba6e51f58af22e42e928b36609ec00193f59ff6d90c67b66fb47d43",
    "resource": {
      "resourceType": "MedicationStatement",
      "meta": {
        "profile": [ "https://www.netzwerk-universitaetsmedizin.de/fhir/StructureDefinition/pharmacological-therapy" ]
      },
      "identifier": [ {
        "system": "https://mein.krankenhaus.de/fhir/NamingSystem/medicationstatementId",
        "value": "8362bb7b4eac2464c4b4d7d7e0a6e47ce927c93ea8ceacf90efad886614ffb13"
      } ],
      "status": "not-taken",
      "medicationCodeableConcept": {
        "coding": [ {
          "system": "https://www.netzwerk-universitaetsmedizin.de/fhir/CodeSystem/ecrf-parameter-codes",
          "code": "steroids-gt"
        } ]
      },
      "subject": {
        "reference": "Patient/a8049a191013251ddc3044a0a349c06ef544bdc4a2a07cc80ce470ce73b94eb8"
      },
      "effectiveDateTime": "2020-10-06T07:52:00+00:00"
    },
    "request": {
      "method": "POST",
      "url": "MedicationStatement",
      "ifNoneExist": "identifier=https://mein.krankenhaus.de/fhir/NamingSystem/medicationstatementId|0892561d5ba6e51f58af22e42e928b36609ec00193f59ff6d90c67b66fb47d43"
    }
  }, {
    "fullUrl": "MedicationStatement/f502be81598b0987cede20fa8850427ce1609a8bcf7b97778987a09701fc2bba",
    "resource": {
      "resourceType": "MedicationStatement",
      "meta": {
        "profile": [ "https://www.netzwerk-universitaetsmedizin.de/fhir/StructureDefinition/pharmacological-therapy" ]
      },
      "identifier": [ {
        "system": "https://mein.krankenhaus.de/fhir/NamingSystem/medicationstatementId",
        "value": "28de0922136066aca8c91a1e3fb04db5db80481bcfbdf4d60bfe02207ccc08e8"
      } ],
      "status": "active",
      "medicationCodeableConcept": {
        "coding": [ {
          "system": "https://www.netzwerk-universitaetsmedizin.de/fhir/CodeSystem/ecrf-parameter-codes",
          "code": "steroids-lt"
        } ]
      },
      "subject": {
        "reference": "Patient/a8049a191013251ddc3044a0a349c06ef544bdc4a2a07cc80ce470ce73b94eb8"
      },
      "effectiveDateTime": "2020-10-06T07:52:00+00:00"
    },
    "request": {
      "method": "POST",
      "url": "MedicationStatement",
      "ifNoneExist": "identifier=https://mein.krankenhaus.de/fhir/NamingSystem/medicationstatementId|f502be81598b0987cede20fa8850427ce1609a8bcf7b97778987a09701fc2bba"
    }
  }, {
    "fullUrl": "MedicationStatement/3b40d3525a9a7de835044e4ea3af1b3f1723f21652190c9f97b428a3fd52766c",
    "resource": {
      "resourceType": "MedicationStatement",
      "meta": {
        "profile": [ "https://www.netzwerk-universitaetsmedizin.de/fhir/StructureDefinition/pharmacological-therapy" ]
      },
      "identifier": [ {
        "system": "https://mein.krankenhaus.de/fhir/NamingSystem/medicationstatementId",
        "value": "77cc36e20ca665f39a758e4cf204bcea580964fc249bbab595b8a3968e2a8eb7"
      } ],
      "status": "unknown",
      "medicationCodeableConcept": {
        "coding": [ {
          "system": "http://fhir.de/CodeSystem/dimdi/ops",
          "code": "6-005.m"
        }, {
          "system": "http://fhir.de/CodeSystem/dimdi/ops",
          "code": "6-005.n"
        }, {
          "system": "http://fhir.de/CodeSystem/dimdi/atc",
          "code": "L04AC07"
        }, {
          "system": "http://snomed.info/sct",
          "code": "444649004"
        } ]
      },
      "subject": {
        "reference": "Patient/a8049a191013251ddc3044a0a349c06ef544bdc4a2a07cc80ce470ce73b94eb8"
      },
      "effectiveDateTime": "2020-10-06T07:52:00+00:00"
    },
    "request": {
      "method": "POST",
      "url": "MedicationStatement",
      "ifNoneExist": "identifier=https://mein.krankenhaus.de/fhir/NamingSystem/medicationstatementId|3b40d3525a9a7de835044e4ea3af1b3f1723f21652190c9f97b428a3fd52766c"
    }
  }, {
    "fullUrl": "MedicationStatement/36093b6ff9e53aa2951d035828075844106175241fc8997374108a89e9bdb4ca",
    "resource": {
      "resourceType": "MedicationStatement",
      "meta": {
        "profile": [ "https://www.netzwerk-universitaetsmedizin.de/fhir/StructureDefinition/pharmacological-therapy" ]
      },
      "identifier": [ {
        "system": "https://mein.krankenhaus.de/fhir/NamingSystem/medicationstatementId",
        "value": "c19f74a88227120de35a6705b439d3c68d08ca0a0420828b43d5b22f5364dadb"
      } ],
      "status": "unknown",
      "medicationCodeableConcept": {
        "coding": [ {
          "system": "http://fhir.de/CodeSystem/dimdi/ops",
          "code": "6-00a.g"
        }, {
          "system": "http://fhir.de/CodeSystem/dimdi/atc",
          "code": "L04AC14"
        }, {
          "system": "http://snomed.info/sct",
          "code": "763522001"
        } ]
      },
      "subject": {
        "reference": "Patient/a8049a191013251ddc3044a0a349c06ef544bdc4a2a07cc80ce470ce73b94eb8"
      },
      "effectiveDateTime": "2020-10-06T07:52:00+00:00"
    },
    "request": {
      "method": "POST",
      "url": "MedicationStatement",
      "ifNoneExist": "identifier=https://mein.krankenhaus.de/fhir/NamingSystem/medicationstatementId|36093b6ff9e53aa2951d035828075844106175241fc8997374108a89e9bdb4ca"
    }
  }, {
    "fullUrl": "MedicationStatement/9f63ddfc0d625847d4be71f0a76b7a708e209b8eff815357a866ccae2f5c4720",
    "resource": {
      "resourceType": "MedicationStatement",
      "meta": {
        "profile": [ "https://www.netzwerk-universitaetsmedizin.de/fhir/StructureDefinition/pharmacological-therapy" ]
      },
      "identifier": [ {
        "system": "https://mein.krankenhaus.de/fhir/NamingSystem/medicationstatementId",
        "value": "dc0a8173be7fce1872c3ea79129994142940c9c1fccb4ed2a608a3387aa16d31"
      } ],
      "status": "active",
      "medicationCodeableConcept": {
        "coding": [ {
          "system": "http://snomed.info/sct",
          "code": "416587008"
        } ]
      },
      "subject": {
        "reference": "Patient/a8049a191013251ddc3044a0a349c06ef544bdc4a2a07cc80ce470ce73b94eb8"
      },
      "effectiveDateTime": "2020-10-06T07:52:00+00:00"
    },
    "request": {
      "method": "POST",
      "url": "MedicationStatement",
      "ifNoneExist": "identifier=https://mein.krankenhaus.de/fhir/NamingSystem/medicationstatementId|9f63ddfc0d625847d4be71f0a76b7a708e209b8eff815357a866ccae2f5c4720"
    }
  }, {
    "fullUrl": "MedicationStatement/4435ff565741fbb64d4cff51ad616ea72f893e65c95869187d9707e576067cfc",
    "resource": {
      "resourceType": "MedicationStatement",
      "meta": {
        "profile": [ "https://www.netzwerk-universitaetsmedizin.de/fhir/StructureDefinition/pharmacological-therapy" ]
      },
      "identifier": [ {
        "system": "https://mein.krankenhaus.de/fhir/NamingSystem/medicationstatementId",
        "value": "daa2fe4a23b9ecee46a17300b9f7ed89a121ef8667b06c66389e0e2a9664e1c5"
      } ],
      "status": "unknown",
      "medicationCodeableConcept": {
        "coding": [ {
          "system": "http://fhir.de/CodeSystem/dimdi/ops",
          "code": "6-001.d"
        }, {
          "system": "http://fhir.de/CodeSystem/dimdi/ops",
          "code": "6-002.b"
        }, {
          "system": "http://fhir.de/CodeSystem/dimdi/ops",
          "code": "6-005.7"
        }, {
          "system": "http://fhir.de/CodeSystem/dimdi/ops",
          "code": "6-005.2"
        }, {
          "system": "http://fhir.de/CodeSystem/dimdi/ops",
          "code": "6-001.e"
        }, {
          "system": "http://snomed.info/sct",
          "code": "416897008"
        } ]
      },
      "subject": {
        "reference": "Patient/a8049a191013251ddc3044a0a349c06ef544bdc4a2a07cc80ce470ce73b94eb8"
      },
      "effectiveDateTime": "2020-10-06T07:52:00+00:00"
    },
    "request": {
      "method": "POST",
      "url": "MedicationStatement",
      "ifNoneExist": "identifier=https://mein.krankenhaus.de/fhir/NamingSystem/medicationstatementId|4435ff565741fbb64d4cff51ad616ea72f893e65c95869187d9707e576067cfc"
    }
  }, {
    "fullUrl": "MedicationStatement/7e47f136e16da155eaae03eda124d0f73cc79179d9004576daaaac4b35bce674",
    "resource": {
      "resourceType": "MedicationStatement",
      "meta": {
        "profile": [ "https://www.netzwerk-universitaetsmedizin.de/fhir/StructureDefinition/pharmacological-therapy" ]
      },
      "identifier": [ {
        "system": "https://mein.krankenhaus.de/fhir/NamingSystem/medicationstatementId",
        "value": "f5a2e609096ec89cf76a57f2790226bdf7c22ab85b5b61e28fa64dd5cc8aacee"
      } ],
      "status": "not-taken",
      "medicationCodeableConcept": {
        "coding": [ {
          "system": "http://fhir.de/CodeSystem/dimdi/ops",
          "code": "6-006.7"
        }, {
          "system": "http://fhir.de/CodeSystem/dimdi/atc",
          "code": "L04AC"
        }, {
          "system": "http://snomed.info/sct",
          "code": "430817009"
        } ]
      },
      "subject": {
        "reference": "Patient/a8049a191013251ddc3044a0a349c06ef544bdc4a2a07cc80ce470ce73b94eb8"
      },
      "effectiveDateTime": "2020-10-06T07:52:00+00:00"
    },
    "request": {
      "method": "POST",
      "url": "MedicationStatement",
      "ifNoneExist": "identifier=https://mein.krankenhaus.de/fhir/NamingSystem/medicationstatementId|7e47f136e16da155eaae03eda124d0f73cc79179d9004576daaaac4b35bce674"
    }
  }, {
    "fullUrl": "MedicationStatement/3f021b3b5e601a0c42060da71c79021f4de6efb58a8049cc1ee088c54113b7a2",
    "resource": {
      "resourceType": "MedicationStatement",
      "meta": {
        "profile": [ "https://www.netzwerk-universitaetsmedizin.de/fhir/StructureDefinition/pharmacological-therapy" ]
      },
      "identifier": [ {
        "system": "https://mein.krankenhaus.de/fhir/NamingSystem/medicationstatementId",
        "value": "db1a61596a766975ee7738284fb0b91f92cb03003cecb5a434be689d9eb6a2bc"
      } ],
      "status": "active",
      "medicationCodeableConcept": {
        "coding": [ {
          "system": "http://fhir.de/CodeSystem/dimdi/ops",
          "code": "6-009.4"
        }, {
          "system": "http://snomed.info/sct",
          "code": "703779004"
        } ]
      },
      "subject": {
        "reference": "Patient/a8049a191013251ddc3044a0a349c06ef544bdc4a2a07cc80ce470ce73b94eb8"
      },
      "effectiveDateTime": "2020-10-06T07:52:00+00:00"
    },
    "request": {
      "method": "POST",
      "url": "MedicationStatement",
      "ifNoneExist": "identifier=https://mein.krankenhaus.de/fhir/NamingSystem/medicationstatementId|3f021b3b5e601a0c42060da71c79021f4de6efb58a8049cc1ee088c54113b7a2"
    }
  }, {
    "fullUrl": "MedicationStatement/8bd3988cfb30d1411eb98507e9f51afdd92d4836f678efa6e37543f16a9d931a",
    "resource": {
      "resourceType": "MedicationStatement",
      "meta": {
        "profile": [ "https://www.netzwerk-universitaetsmedizin.de/fhir/StructureDefinition/pharmacological-therapy" ]
      },
      "identifier": [ {
        "system": "https://mein.krankenhaus.de/fhir/NamingSystem/medicationstatementId",
        "value": "5a731cd625b81eeaf0cd32b672392d7202810d91b1eea17c0b901e19279ee6ee"
      } ],
      "status": "not-taken",
      "medicationCodeableConcept": {
        "coding": [ {
          "system": "http://fhir.de/CodeSystem/dimdi/atc",
          "code": "M04AC01"
        }, {
          "system": "http://snomed.info/sct",
          "code": "73133000"
        } ]
      },
      "subject": {
        "reference": "Patient/a8049a191013251ddc3044a0a349c06ef544bdc4a2a07cc80ce470ce73b94eb8"
      },
      "effectiveDateTime": "2020-10-06T07:52:00+00:00"
    },
    "request": {
      "method": "POST",
      "url": "MedicationStatement",
      "ifNoneExist": "identifier=https://mein.krankenhaus.de/fhir/NamingSystem/medicationstatementId|8bd3988cfb30d1411eb98507e9f51afdd92d4836f678efa6e37543f16a9d931a"
    }
  }, {
    "fullUrl": "MedicationStatement/0c4daa1ae39febf2ddff1ccf1d9734a38b109e25b5b8b37122185dddb4a2db8b",
    "resource": {
      "resourceType": "MedicationStatement",
      "meta": {
        "profile": [ "https://www.netzwerk-universitaetsmedizin.de/fhir/StructureDefinition/pharmacological-therapy" ]
      },
      "identifier": [ {
        "system": "https://mein.krankenhaus.de/fhir/NamingSystem/medicationstatementId",
        "value": "63c8c4446ad81b2de79da035eb15b79c0823fff7ef9f9eff991aea87170a6cf4"
      } ],
      "status": "not-taken",
      "medicationCodeableConcept": {
        "coding": [ {
          "system": "http://fhir.de/CodeSystem/dimdi/atc",
          "code": "S01AD05"
        }, {
          "system": "http://snomed.info/sct",
          "code": "768865007"
        } ]
      },
      "subject": {
        "reference": "Patient/a8049a191013251ddc3044a0a349c06ef544bdc4a2a07cc80ce470ce73b94eb8"
      },
      "effectiveDateTime": "2020-10-06T07:52:00+00:00"
    },
    "request": {
      "method": "POST",
      "url": "MedicationStatement",
      "ifNoneExist": "identifier=https://mein.krankenhaus.de/fhir/NamingSystem/medicationstatementId|0c4daa1ae39febf2ddff1ccf1d9734a38b109e25b5b8b37122185dddb4a2db8b"
    }
  }, {
    "fullUrl": "MedicationStatement/222b04f2bfe548d9cd7e8a7ad6aa06faf64a134623bfa6954275cc51760a45ac",
    "resource": {
      "resourceType": "MedicationStatement",
      "meta": {
        "profile": [ "https://www.netzwerk-universitaetsmedizin.de/fhir/StructureDefinition/pharmacological-therapy" ]
      },
      "identifier": [ {
        "system": "https://mein.krankenhaus.de/fhir/NamingSystem/medicationstatementId",
        "value": "334f40c13eab0bbbea15a7ca5f7aa8acc1e806492b898bcb93df28246b5ebc51"
      } ],
      "status": "unknown",
      "medicationCodeableConcept": {
        "coding": [ {
          "system": "http://fhir.de/CodeSystem/dimdi/atc",
          "code": "A11CC06"
        }, {
          "system": "http://snomed.info/sct",
          "code": "88519001"
        } ]
      },
      "subject": {
        "reference": "Patient/a8049a191013251ddc3044a0a349c06ef544bdc4a2a07cc80ce470ce73b94eb8"
      },
      "effectiveDateTime": "2020-10-06T07:52:00+00:00"
    },
    "request": {
      "method": "POST",
      "url": "MedicationStatement",
      "ifNoneExist": "identifier=https://mein.krankenhaus.de/fhir/NamingSystem/medicationstatementId|222b04f2bfe548d9cd7e8a7ad6aa06faf64a134623bfa6954275cc51760a45ac"
    }
  }, {
    "fullUrl": "MedicationStatement/c9f70d3a3343cf00ad0fe00ea6f424159b8f4b7ff116036ae7f9ab935c4b966e",
    "resource": {
      "resourceType": "MedicationStatement",
      "meta": {
        "profile": [ "https://www.netzwerk-universitaetsmedizin.de/fhir/StructureDefinition/pharmacological-therapy" ]
      },
      "identifier": [ {
        "system": "https://mein.krankenhaus.de/fhir/NamingSystem/medicationstatementId",
        "value": "c9ba343e96db31f09655851dc42b9ffd55e65f8bd0c1d2c699502512a857f915"
      } ],
      "status": "active",
      "medicationCodeableConcept": {
        "coding": [ {
          "system": "http://fhir.de/CodeSystem/dimdi/atc",
          "code": "A12CB"
        }, {
          "system": "http://snomed.info/sct",
          "code": "764877006"
        } ]
      },
      "subject": {
        "reference": "Patient/a8049a191013251ddc3044a0a349c06ef544bdc4a2a07cc80ce470ce73b94eb8"
      },
      "effectiveDateTime": "2020-10-06T07:52:00+00:00"
    },
    "request": {
      "method": "POST",
      "url": "MedicationStatement",
      "ifNoneExist": "identifier=https://mein.krankenhaus.de/fhir/NamingSystem/medicationstatementId|c9f70d3a3343cf00ad0fe00ea6f424159b8f4b7ff116036ae7f9ab935c4b966e"
    }
  }, {
    "fullUrl": "MedicationStatement/ef6fda98127d88e0c0afef54cfe3f400e5c12900bc62b7f978bcff6e90ab312c",
    "resource": {
      "resourceType": "MedicationStatement",
      "meta": {
        "profile": [ "https://www.netzwerk-universitaetsmedizin.de/fhir/StructureDefinition/pharmacological-therapy" ]
      },
      "identifier": [ {
        "system": "https://mein.krankenhaus.de/fhir/NamingSystem/medicationstatementId",
        "value": "dce2330061fd751cdc0a9a399574f629f23e6ba7ac31070531ece2828b00d099"
      } ],
      "status": "unknown",
      "medicationCodeableConcept": {
        "coding": [ {
          "system": "http://snomed.info/sct",
          "code": "41549009"
        } ],
        "text": "ACE inhibitors"
      },
      "subject": {
        "reference": "Patient/a8049a191013251ddc3044a0a349c06ef544bdc4a2a07cc80ce470ce73b94eb8"
      },
      "effectiveDateTime": "2020-10-06T07:52:00+00:00"
    },
    "request": {
      "method": "POST",
      "url": "MedicationStatement",
      "ifNoneExist": "identifier=https://mein.krankenhaus.de/fhir/NamingSystem/medicationstatementId|ef6fda98127d88e0c0afef54cfe3f400e5c12900bc62b7f978bcff6e90ab312c"
    }
  }, {
    "fullUrl": "MedicationStatement/bc28496d82ea4ec53ea3896dfe420493a3f6b295a8f38de9a983d371ced3f287",
    "resource": {
      "resourceType": "MedicationStatement",
      "meta": {
        "profile": [ "https://www.netzwerk-universitaetsmedizin.de/fhir/StructureDefinition/pharmacological-therapy" ]
      },
      "identifier": [ {
        "system": "https://mein.krankenhaus.de/fhir/NamingSystem/medicationstatementId",
        "value": "a2e8870b8959fddfe57982ae7af4404d86c23b2401f6da8e7510c4c2e09f4f66"
      } ],
      "status": "unknown",
      "medicationCodeableConcept": {
        "coding": [ {
          "system": "http://snomed.info/sct",
          "code": "333710000"
        } ],
        "text": "immunoglobulins"
      },
      "subject": {
        "reference": "Patient/a8049a191013251ddc3044a0a349c06ef544bdc4a2a07cc80ce470ce73b94eb8"
      },
      "effectiveDateTime": "2020-10-06T07:52:00+00:00"
    },
    "request": {
      "method": "POST",
      "url": "MedicationStatement",
      "ifNoneExist": "identifier=https://mein.krankenhaus.de/fhir/NamingSystem/medicationstatementId|bc28496d82ea4ec53ea3896dfe420493a3f6b295a8f38de9a983d371ced3f287"
    }
  }, {
    "fullUrl": "MedicationStatement/ca1f50888fa00a8a21f9588ed9027f1f549fa35997ee4499cf8061dd7b66d410",
    "resource": {
      "resourceType": "MedicationStatement",
      "meta": {
        "profile": [ "https://www.netzwerk-universitaetsmedizin.de/fhir/StructureDefinition/pharmacological-therapy-anticoagulants" ]
      },
      "identifier": [ {
        "system": "https://mein.krankenhaus.de/fhir/NamingSystem/medicationstatementId",
        "value": "7399cd9b0e447b23e1ab170b20c32acc08ed68e8b7cc736c2459a7e371b8472c"
      } ],
      "status": "active",
      "medicationCodeableConcept": {
        "coding": [ {
          "system": "http://snomed.info/sct",
          "code": "81839001"
        }, {
          "system": "http://fhir.de/CodeSystem/dimdi/atc",
          "code": "B01AB51"
        } ]
      },
      "subject": {
        "reference": "Patient/a8049a191013251ddc3044a0a349c06ef544bdc4a2a07cc80ce470ce73b94eb8"
      },
      "effectiveDateTime": "2020-10-06T07:52:00+00:00",
      "reasonCode": [ {
        "coding": [ {
          "system": "http://snomed.info/sct",
          "code": "373808002",
          "display": "Curative - procedure intent (qualifier value)"
        } ]
      } ]
    },
    "request": {
      "method": "POST",
      "url": "MedicationStatement",
      "ifNoneExist": "identifier=https://mein.krankenhaus.de/fhir/NamingSystem/medicationstatementId|ca1f50888fa00a8a21f9588ed9027f1f549fa35997ee4499cf8061dd7b66d410"
    }
  }, {
    "fullUrl": "MedicationStatement/75caff99c1ec08b1c990a8b15ad484e7bfc355d078b84c10bbbd89ccd2ee22b1",
    "resource": {
      "resourceType": "MedicationStatement",
      "meta": {
        "profile": [ "https://www.netzwerk-universitaetsmedizin.de/fhir/StructureDefinition/pharmacological-therapy-anticoagulants" ]
      },
      "identifier": [ {
        "system": "https://mein.krankenhaus.de/fhir/NamingSystem/medicationstatementId",
        "value": "1b48d3ad6cf7a8ee1358d1a5767466f293337946aad5670f8c6734efa7b13f78"
      } ],
      "status": "not-taken",
      "medicationCodeableConcept": {
        "coding": [ {
          "system": "http://snomed.info/sct",
          "code": "81839001"
        }, {
          "system": "http://fhir.de/CodeSystem/dimdi/atc",
          "code": "B01AB08"
        }, {
          "system": "http://fhir.de/CodeSystem/dimdi/atc",
          "code": "B01AB13"
        }, {
          "system": "http://fhir.de/CodeSystem/dimdi/atc",
          "code": "B01AB04"
        }, {
          "system": "http://fhir.de/CodeSystem/dimdi/atc",
          "code": "B01AB05"
        }, {
          "system": "http://fhir.de/CodeSystem/dimdi/atc",
          "code": "B01AB06"
        }, {
          "system": "http://fhir.de/CodeSystem/dimdi/atc",
          "code": "B01AB10"
        }, {
          "system": "http://fhir.de/CodeSystem/dimdi/atc",
          "code": "B01AB12"
        }, {
          "system": "http://fhir.de/CodeSystem/dimdi/atc",
          "code": "B01AB63"
        }, {
          "system": "http://fhir.de/CodeSystem/dimdi/atc",
          "code": "B01AB07"
        }, {
          "system": "http://fhir.de/CodeSystem/dimdi/atc",
          "code": "B01AB11"
        } ]
      },
      "subject": {
        "reference": "Patient/a8049a191013251ddc3044a0a349c06ef544bdc4a2a07cc80ce470ce73b94eb8"
      },
      "effectiveDateTime": "2020-10-06T07:52:00+00:00",
      "reasonCode": [ {
        "coding": [ {
          "system": "http://snomed.info/sct",
          "code": "373808002",
          "display": "Curative - procedure intent (qualifier value)"
        } ]
      } ]
    },
    "request": {
      "method": "POST",
      "url": "MedicationStatement",
      "ifNoneExist": "identifier=https://mein.krankenhaus.de/fhir/NamingSystem/medicationstatementId|75caff99c1ec08b1c990a8b15ad484e7bfc355d078b84c10bbbd89ccd2ee22b1"
    }
  }, {
    "fullUrl": "MedicationStatement/4e7720b5b7c244c17d36afac9605b5b81331a32b009f7168ba22fec1995d4c42",
    "resource": {
      "resourceType": "MedicationStatement",
      "meta": {
        "profile": [ "https://www.netzwerk-universitaetsmedizin.de/fhir/StructureDefinition/pharmacological-therapy-anticoagulants" ]
      },
      "identifier": [ {
        "system": "https://mein.krankenhaus.de/fhir/NamingSystem/medicationstatementId",
        "value": "1868eaec87f205c0f7f89c7dfc2978830e9beb6e079289ec629208737433d6f1"
      } ],
      "status": "not-taken",
      "medicationCodeableConcept": {
        "coding": [ {
          "system": "http://snomed.info/sct",
          "code": "81839001"
        }, {
          "system": "http://fhir.de/CodeSystem/dimdi/atc",
          "code": "B01AE03"
        } ]
      },
      "subject": {
        "reference": "Patient/a8049a191013251ddc3044a0a349c06ef544bdc4a2a07cc80ce470ce73b94eb8"
      },
      "effectiveDateTime": "2020-10-06T07:52:00+00:00",
      "reasonCode": [ {
        "coding": [ {
          "system": "http://snomed.info/sct",
          "code": "373808002",
          "display": "Curative - procedure intent (qualifier value)"
        } ]
      } ]
    },
    "request": {
      "method": "POST",
      "url": "MedicationStatement",
      "ifNoneExist": "identifier=https://mein.krankenhaus.de/fhir/NamingSystem/medicationstatementId|4e7720b5b7c244c17d36afac9605b5b81331a32b009f7168ba22fec1995d4c42"
    }
  }, {
    "fullUrl": "MedicationStatement/a3ee65cd521010b3831d1291080edc4745de7b607e88a03a7486587600197cf0",
    "resource": {
      "resourceType": "MedicationStatement",
      "meta": {
        "profile": [ "https://www.netzwerk-universitaetsmedizin.de/fhir/StructureDefinition/pharmacological-therapy-anticoagulants" ]
      },
      "identifier": [ {
        "system": "https://mein.krankenhaus.de/fhir/NamingSystem/medicationstatementId",
        "value": "f170eeac5c1ff164ebdaaa2269518905cd2d360c8b66da5c347dc9582f0260f9"
      } ],
      "status": "not-taken",
      "medicationCodeableConcept": {
        "coding": [ {
          "system": "http://snomed.info/sct",
          "code": "81839001"
        }, {
          "system": "http://fhir.de/CodeSystem/dimdi/atc",
          "code": "B01AC"
        } ]
      },
      "subject": {
        "reference": "Patient/a8049a191013251ddc3044a0a349c06ef544bdc4a2a07cc80ce470ce73b94eb8"
      },
      "effectiveDateTime": "2020-10-06T07:52:00+00:00",
      "reasonCode": [ {
        "coding": [ {
          "system": "http://snomed.info/sct",
          "code": "373808002",
          "display": "Curative - procedure intent (qualifier value)"
        } ]
      } ]
    },
    "request": {
      "method": "POST",
      "url": "MedicationStatement",
      "ifNoneExist": "identifier=https://mein.krankenhaus.de/fhir/NamingSystem/medicationstatementId|a3ee65cd521010b3831d1291080edc4745de7b607e88a03a7486587600197cf0"
    }
  }, {
    "fullUrl": "MedicationStatement/bd9329f60f136fcd1027c7c0a3f36719111dda46bca5b49cc3119652ff92ada7",
    "resource": {
      "resourceType": "MedicationStatement",
      "meta": {
        "profile": [ "https://www.netzwerk-universitaetsmedizin.de/fhir/StructureDefinition/pharmacological-therapy-anticoagulants" ]
      },
      "identifier": [ {
        "system": "https://mein.krankenhaus.de/fhir/NamingSystem/medicationstatementId",
        "value": "96df3bef8860798653d94feb5d6a58795fb20e160a01f3f6162e54d4ab73a1b8"
      } ],
      "status": "unknown",
      "medicationCodeableConcept": {
        "coding": [ {
          "system": "http://snomed.info/sct",
          "code": "81839001"
        }, {
          "system": "http://fhir.de/CodeSystem/dimdi/atc",
          "code": "B01AB09"
        } ]
      },
      "subject": {
        "reference": "Patient/a8049a191013251ddc3044a0a349c06ef544bdc4a2a07cc80ce470ce73b94eb8"
      },
      "effectiveDateTime": "2020-10-06T07:52:00+00:00",
      "reasonCode": [ {
        "coding": [ {
          "system": "http://snomed.info/sct",
          "code": "373808002",
          "display": "Curative - procedure intent (qualifier value)"
        } ]
      } ]
    },
    "request": {
      "method": "POST",
      "url": "MedicationStatement",
      "ifNoneExist": "identifier=https://mein.krankenhaus.de/fhir/NamingSystem/medicationstatementId|bd9329f60f136fcd1027c7c0a3f36719111dda46bca5b49cc3119652ff92ada7"
    }
  }, {
    "fullUrl": "MedicationStatement/17ab905baaca3abfef3d6350684e3891e14fbf8c78f6f2054b51044853925c8c",
    "resource": {
      "resourceType": "MedicationStatement",
      "meta": {
        "profile": [ "https://www.netzwerk-universitaetsmedizin.de/fhir/StructureDefinition/pharmacological-therapy-anticoagulants" ]
      },
      "identifier": [ {
        "system": "https://mein.krankenhaus.de/fhir/NamingSystem/medicationstatementId",
        "value": "4cd3617a1cd73229d7f608ed6aaa990f04777d81a7adfef80b4afb10162e378e"
      } ],
      "status": "not-taken",
      "medicationCodeableConcept": {
        "coding": [ {
          "system": "http://snomed.info/sct",
          "code": "81839001"
        }, {
          "system": "http://fhir.de/CodeSystem/dimdi/atc",
          "code": "B01AA04"
        } ]
      },
      "subject": {
        "reference": "Patient/a8049a191013251ddc3044a0a349c06ef544bdc4a2a07cc80ce470ce73b94eb8"
      },
      "effectiveDateTime": "2020-10-06T07:52:00+00:00",
      "reasonCode": [ {
        "coding": [ {
          "system": "http://snomed.info/sct",
          "code": "373808002",
          "display": "Curative - procedure intent (qualifier value)"
        } ]
      } ]
    },
    "request": {
      "method": "POST",
      "url": "MedicationStatement",
      "ifNoneExist": "identifier=https://mein.krankenhaus.de/fhir/NamingSystem/medicationstatementId|17ab905baaca3abfef3d6350684e3891e14fbf8c78f6f2054b51044853925c8c"
    }
  }, {
    "fullUrl": "MedicationStatement/6b4e6b24b6eb15024c86eb33b7e8f9b0f766371d81c067269c91a4c1e1263a66",
    "resource": {
      "resourceType": "MedicationStatement",
      "meta": {
        "profile": [ "https://www.netzwerk-universitaetsmedizin.de/fhir/StructureDefinition/pharmacological-therapy-anticoagulants" ]
      },
      "identifier": [ {
        "system": "https://mein.krankenhaus.de/fhir/NamingSystem/medicationstatementId",
        "value": "2449b69cbdd06fc3b606c97a7ced256d4b54e41a2ab8dc21d9e22a649bad08f7"
      } ],
      "status": "not-taken",
      "medicationCodeableConcept": {
        "coding": [ {
          "system": "http://snomed.info/sct",
          "code": "81839001"
        }, {
          "system": "http://fhir.de/CodeSystem/dimdi/atc",
          "code": "B01AE"
        }, {
          "system": "http://fhir.de/CodeSystem/dimdi/atc",
          "code": "B01AF"
        } ]
      },
      "subject": {
        "reference": "Patient/a8049a191013251ddc3044a0a349c06ef544bdc4a2a07cc80ce470ce73b94eb8"
      },
      "effectiveDateTime": "2020-10-06T07:52:00+00:00",
      "reasonCode": [ {
        "coding": [ {
          "system": "http://snomed.info/sct",
          "code": "373808002",
          "display": "Curative - procedure intent (qualifier value)"
        } ]
      } ]
    },
    "request": {
      "method": "POST",
      "url": "MedicationStatement",
      "ifNoneExist": "identifier=https://mein.krankenhaus.de/fhir/NamingSystem/medicationstatementId|6b4e6b24b6eb15024c86eb33b7e8f9b0f766371d81c067269c91a4c1e1263a66"
    }
  }, {
    "fullUrl": "MedicationStatement/f084b6d0d2037285298201b3fda5fd62767fe5d379a2aac2de65791c80163238",
    "resource": {
      "resourceType": "MedicationStatement",
      "meta": {
        "profile": [ "https://www.netzwerk-universitaetsmedizin.de/fhir/StructureDefinition/pharmacological-therapy-anticoagulants" ]
      },
      "identifier": [ {
        "system": "https://mein.krankenhaus.de/fhir/NamingSystem/medicationstatementId",
        "value": "5f910ef9a7e8fa2af8a719204d21ec34f472c8388c3d3839d0e60ecf3c8efe26"
      } ],
      "status": "not-taken",
      "medicationCodeableConcept": {
        "coding": [ {
          "system": "http://snomed.info/sct",
          "code": "81839001"
        } ]
      },
      "subject": {
        "reference": "Patient/a8049a191013251ddc3044a0a349c06ef544bdc4a2a07cc80ce470ce73b94eb8"
      },
      "effectiveDateTime": "2020-10-06T07:52:00+00:00",
      "reasonCode": [ {
        "coding": [ {
          "system": "http://snomed.info/sct",
          "code": "373808002",
          "display": "Curative - procedure intent (qualifier value)"
        } ]
      } ]
    },
    "request": {
      "method": "POST",
      "url": "MedicationStatement",
      "ifNoneExist": "identifier=https://mein.krankenhaus.de/fhir/NamingSystem/medicationstatementId|f084b6d0d2037285298201b3fda5fd62767fe5d379a2aac2de65791c80163238"
    }
  }, {
    "fullUrl": "Observation/6d893bcb29dd211a551789b7bcce4c674139aaa8ed0824a84269a47698d4d87c",
    "resource": {
      "resourceType": "Observation",
      "meta": {
        "profile": [ "https://www.netzwerk-universitaetsmedizin.de/fhir/StructureDefinition/oxygen-partial-pressure" ]
      },
      "identifier": [ {
        "type": {
          "coding": [ {
            "system": "http://terminology.hl7.org/CodeSystem/v2-0203",
            "code": "OBI",
            "display": "Observation Instance Identifier"
          } ]
        },
        "system": "https://mein.krankenhaus.de/fhir/NamingSystem/observationId",
        "value": "bce30b193a8c0e55daf22fafcbe4824c8fbd9c6954a6342820c05898081679b6",
        "assigner": {
          "reference": "Organization/3a4f3433bce81181bad2d8e0b8fafccf7dc800bc06f29be73dcb38b750a48f9a"
        }
      } ],
      "status": "final",
      "category": [ {
        "coding": [ {
          "system": "http://terminology.hl7.org/CodeSystem/observation-category",
          "code": "laboratory",
          "display": "Laboratory"
        }, {
          "system": "http://loinc.org",
          "code": "26436-6",
          "display": "Laboratory studies (set)"
        }, {
          "system": "http://loinc.org",
          "code": "18767-4",
          "display": "Blood gas studies (set)"
        } ]
      } ],
      "code": {
        "coding": [ {
          "system": "http://loinc.org",
          "code": "11557-8"
        } ],
        "text": "Oxygen [Partial pressure] in blood"
      },
      "subject": {
        "reference": "Patient/a8049a191013251ddc3044a0a349c06ef544bdc4a2a07cc80ce470ce73b94eb8"
      },
      "encounter": {
        "reference": "Encounter/9b494e3fc8734e35d6ac69d212bd41d19f0235e55a741f28dfbd47085e16e5d7"
      },
      "effectiveDateTime": "2020-03-10T10:00:00+00:00",
      "valueQuantity": {
        "value": 131,
        "unit": "mmHg",
        "system": "http://unitsofmeasure.org",
        "code": "mm[Hg]"
      }
    },
    "request": {
      "method": "POST",
      "url": "Observation",
      "ifNoneExist": "identifier=https://mein.krankenhaus.de/fhir/NamingSystem/observationId|6d893bcb29dd211a551789b7bcce4c674139aaa8ed0824a84269a47698d4d87c"
    }
  }, {
    "fullUrl": "Observation/cf61f6ba73cf8aaefd07525e047d61ad1d2b0828be0a5632a7ed00897a0a6632",
    "resource": {
      "resourceType": "Observation",
      "meta": {
        "profile": [ "https://www.netzwerk-universitaetsmedizin.de/fhir/StructureDefinition/inhaled-oxygen-concentration" ]
      },
      "identifier": [ {
        "type": {
          "coding": [ {
            "system": "http://terminology.hl7.org/CodeSystem/v2-0203",
            "code": "OBI",
            "display": "Observation Instance Identifier"
          } ]
        },
        "system": "https://mein.krankenhaus.de/fhir/NamingSystem/observationId",
        "value": "6c3477c3d2cd0e21eca45b54f43c1c5a3dfe37d5a4e8255c050c37fcb6874c5e",
        "assigner": {
          "reference": "Organization/3a4f3433bce81181bad2d8e0b8fafccf7dc800bc06f29be73dcb38b750a48f9a"
        }
      } ],
      "status": "final",
      "category": [ {
        "coding": [ {
          "system": "http://terminology.hl7.org/CodeSystem/observation-category",
          "code": "laboratory",
          "display": "Laboratory"
        }, {
          "system": "http://loinc.org",
          "code": "26436-6",
          "display": "Laboratory studies (set)"
        }, {
          "system": "http://loinc.org",
          "code": "18767-4",
          "display": "Blood gas studies (set)"
        } ]
      } ],
      "code": {
        "coding": [ {
          "system": "http://loinc.org",
          "code": "3150-0"
        }, {
          "system": "http://snomed.info/sct",
          "code": "250774007"
        } ],
        "text": "Oxygen [Partial pressure] in blood"
      },
      "subject": {
        "reference": "Patient/a8049a191013251ddc3044a0a349c06ef544bdc4a2a07cc80ce470ce73b94eb8"
      },
      "encounter": {
        "reference": "Encounter/9b494e3fc8734e35d6ac69d212bd41d19f0235e55a741f28dfbd47085e16e5d7"
      },
      "effectiveDateTime": "2020-03-10T10:00:00+00:00",
      "valueQuantity": {
        "value": 50.68864012863664,
        "unit": "%",
        "system": "http://unitsofmeasure.org",
        "code": "%"
      }
    },
    "request": {
      "method": "POST",
      "url": "Observation",
      "ifNoneExist": "identifier=https://mein.krankenhaus.de/fhir/NamingSystem/observationId|cf61f6ba73cf8aaefd07525e047d61ad1d2b0828be0a5632a7ed00897a0a6632"
    }
  }, {
    "fullUrl": "Observation/896c244a61a93d88ed2544ca857ad93228e20049538cc1ddc23b830a62c3e126",
    "resource": {
      "resourceType": "Observation",
      "meta": {
        "profile": [ "https://www.netzwerk-universitaetsmedizin.de/fhir/StructureDefinition/pH" ]
      },
      "identifier": [ {
        "type": {
          "coding": [ {
            "system": "http://terminology.hl7.org/CodeSystem/v2-0203",
            "code": "OBI",
            "display": "Observation Instance Identifier"
          } ]
        },
        "system": "https://mein.krankenhaus.de/fhir/NamingSystem/observationId",
        "value": "38b732b2252decb7f4c92849ae6d7b6150ad4fceff57ae3d025f672c4712c4f1",
        "assigner": {
          "reference": "Organization/3a4f3433bce81181bad2d8e0b8fafccf7dc800bc06f29be73dcb38b750a48f9a"
        }
      } ],
      "status": "final",
      "category": [ {
        "coding": [ {
          "system": "http://terminology.hl7.org/CodeSystem/observation-category",
          "code": "laboratory",
          "display": "Laboratory"
        }, {
          "system": "http://loinc.org",
          "code": "26436-6",
          "display": "Laboratory studies (set)"
        }, {
          "system": "http://loinc.org",
          "code": "18767-4",
          "display": "Blood gas studies (set)"
        } ]
      } ],
      "code": {
        "coding": [ {
          "system": "http://loinc.org",
          "code": "11558-4"
        } ],
        "text": "pH of Blood"
      },
      "subject": {
        "reference": "Patient/a8049a191013251ddc3044a0a349c06ef544bdc4a2a07cc80ce470ce73b94eb8"
      },
      "encounter": {
        "reference": "Encounter/9b494e3fc8734e35d6ac69d212bd41d19f0235e55a741f28dfbd47085e16e5d7"
      },
      "effectiveDateTime": "2020-03-10T10:00:00+00:00",
      "valueQuantity": {
        "value": 5.054660929469732,
        "unit": "pH",
        "system": "http://unitsofmeasure.org",
        "code": "[pH]"
      }
    },
    "request": {
      "method": "POST",
      "url": "Observation",
      "ifNoneExist": "identifier=https://mein.krankenhaus.de/fhir/NamingSystem/observationId|896c244a61a93d88ed2544ca857ad93228e20049538cc1ddc23b830a62c3e126"
    }
  }, {
    "fullUrl": "Observation/aa56df33381e916015f3ec4570285c68daa13f795ad6644ab83b9a5d484d4ef4",
    "resource": {
      "resourceType": "Observation",
      "meta": {
        "profile": [ "https://www.netzwerk-universitaetsmedizin.de/fhir/StructureDefinition/sofa-score" ]
      },
      "identifier": [ {
        "type": {
          "coding": [ {
            "system": "http://terminology.hl7.org/CodeSystem/v2-0203",
            "code": "OBI",
            "display": "Observation Instance Identifier"
          } ]
        },
        "system": "https://mein.krankenhaus.de/fhir/NamingSystem/observationId",
        "value": "879d80b5c98f44b96e280a7d7fc3d428892f2ee3276191295d9b7e3b7b8965f2",
        "assigner": {
          "reference": "Organization/3a4f3433bce81181bad2d8e0b8fafccf7dc800bc06f29be73dcb38b750a48f9a"
        }
      } ],
      "status": "final",
      "category": [ {
        "coding": [ {
          "system": "http://terminology.hl7.org/CodeSystem/observation-category",
          "code": "survey",
          "display": "Survey"
        } ]
      } ],
      "code": {
        "coding": [ {
          "system": "https://www.netzwerk-universitaetsmedizin.de/fhir/CodeSystem/ecrf-parameter-codes",
          "code": "06",
          "display": "SOFA-Score"
        } ],
        "text": "Sepsis-related organ failure assessment score"
      },
      "subject": {
        "reference": "Patient/a8049a191013251ddc3044a0a349c06ef544bdc4a2a07cc80ce470ce73b94eb8"
      },
      "encounter": {
        "reference": "Encounter/9b494e3fc8734e35d6ac69d212bd41d19f0235e55a741f28dfbd47085e16e5d7"
      },
      "effectiveDateTime": "2020-03-10T10:00:00+00:00",
      "valueInteger": 15,
      "component": [ {
        "code": {
          "coding": [ {
            "system": "https://www.netzwerk-universitaetsmedizin.de/fhir/CodeSystem/sofa-score",
            "code": "resp",
            "display": "Respiratory system"
          } ],
          "text": "SOFA Respiratory system scoring category"
        },
        "valueCodeableConcept": {
          "coding": [ {
            "system": "https://www.netzwerk-universitaetsmedizin.de/fhir/CodeSystem/sofa-score",
            "code": "resp3",
            "display": "Respiratory system SOFA score 3"
          } ],
          "text": "PaO2/FiO2 [mmHg (kPa)] < 200 (26.7) and mechanically ventilated"
        }
      }, {
        "code": {
          "coding": [ {
            "system": "https://www.netzwerk-universitaetsmedizin.de/fhir/CodeSystem/sofa-score",
            "code": "ns",
            "display": "Nervous system"
          } ],
          "text": "SOFA Nervous system scoring category"
        },
        "valueCodeableConcept": {
          "coding": [ {
            "system": "https://www.netzwerk-universitaetsmedizin.de/fhir/CodeSystem/sofa-score",
            "code": "ns2",
            "display": "Nervous system SOFA score 2"
          } ],
          "text": "Glasgow Coma Scale (GCS) 10-12"
        }
      }, {
        "code": {
          "coding": [ {
            "system": "https://www.netzwerk-universitaetsmedizin.de/fhir/CodeSystem/sofa-score",
            "code": "kid",
            "display": "Kidneys"
          } ],
          "text": "SOFA Kidneys scoring category"
        },
        "valueCodeableConcept": {
          "coding": [ {
            "system": "https://www.netzwerk-universitaetsmedizin.de/fhir/CodeSystem/sofa-score",
            "code": "kid3",
            "display": "Kidneys SOFA score 3"
          } ],
          "text": "Creatinine (mg/dl) [umol/L] (or urine output) 3.5-4.9 [300-440] (or < 500 ml/d)"
        }
      }, {
        "code": {
          "coding": [ {
            "system": "https://www.netzwerk-universitaetsmedizin.de/fhir/CodeSystem/sofa-score",
            "code": "cvs",
            "display": "Cardiovascular system"
          } ],
          "text": "SOFA Cardiovascular system scoring category"
        },
        "valueCodeableConcept": {
          "coding": [ {
            "system": "https://www.netzwerk-universitaetsmedizin.de/fhir/CodeSystem/sofa-score",
            "code": "cvs2",
            "display": "Cardiovascular system SOFA score 2"
          } ],
          "text": "Administration of dopamine ≤ 5 ug/kg/min or dobutamine (any dose)"
        }
      }, {
        "code": {
          "coding": [ {
            "system": "https://www.netzwerk-universitaetsmedizin.de/fhir/CodeSystem/sofa-score",
            "code": "liv",
            "display": "Liver"
          } ],
          "text": "SOFA Liver scoring category"
        },
        "valueCodeableConcept": {
          "coding": [ {
            "system": "https://www.netzwerk-universitaetsmedizin.de/fhir/CodeSystem/sofa-score",
            "code": "liv3",
            "display": "Liver SOFA score 3"
          } ],
          "text": "Bilirubin (mg/dl) [umol/L] 6.0-11.9 [102-204]"
        }
      }, {
        "code": {
          "coding": [ {
            "system": "https://www.netzwerk-universitaetsmedizin.de/fhir/CodeSystem/sofa-score",
            "code": "coa",
            "display": "Coagulation"
          } ],
          "text": "SOFA Coagulation scoring category"
        },
        "valueCodeableConcept": {
          "coding": [ {
            "system": "https://www.netzwerk-universitaetsmedizin.de/fhir/CodeSystem/sofa-score",
            "code": "coa2",
            "display": "Coagulation SOFA score 2"
          } ],
          "text": "Platelets×10^3/ul < 100"
        }
      } ]
    },
    "request": {
      "method": "POST",
      "url": "Observation",
      "ifNoneExist": "identifier=https://mein.krankenhaus.de/fhir/NamingSystem/observationId|aa56df33381e916015f3ec4570285c68daa13f795ad6644ab83b9a5d484d4ef4"
    }
  }, {
    "fullUrl": "Observation/1583f165800fcd54b8add5666619c9f517e1459de40357a8097740b9819fff2f",
    "resource": {
      "resourceType": "Observation",
      "meta": {
        "profile": [ "https://www.netzwerk-universitaetsmedizin.de/fhir/StructureDefinition/blood-pressure" ]
      },
      "identifier": [ {
        "type": {
          "coding": [ {
            "system": "http://terminology.hl7.org/CodeSystem/v2-0203",
            "code": "OBI",
            "display": "Observation Instance Identifier"
          } ]
        },
        "system": "https://mein.krankenhaus.de/fhir/NamingSystem/observationId",
        "value": "7765cf940ba40c9ffb0341f1a2b94a41c5abfcbfeb636d8268556fd6ff6a1389",
        "assigner": {
          "reference": "Organization/3a4f3433bce81181bad2d8e0b8fafccf7dc800bc06f29be73dcb38b750a48f9a"
        }
      } ],
      "status": "final",
      "category": [ {
        "coding": [ {
          "system": "http://terminology.hl7.org/CodeSystem/observation-category",
          "code": "vital-signs",
          "display": "Vital Signs"
        } ]
      } ],
      "code": {
        "coding": [ {
          "system": "http://loinc.org",
          "code": "85354-9",
          "display": "Blood pressure panel with all children optional"
        }, {
          "system": "http://snomed.info/sct",
          "code": "75367002",
          "display": "Blood pressure (observable entity)"
        } ],
        "text": "Blood pressure"
      },
      "subject": {
        "reference": "Patient/a8049a191013251ddc3044a0a349c06ef544bdc4a2a07cc80ce470ce73b94eb8"
      },
      "encounter": {
        "reference": "Encounter/9b494e3fc8734e35d6ac69d212bd41d19f0235e55a741f28dfbd47085e16e5d7"
      },
      "effectiveDateTime": "2020-03-10T10:00:00+00:00",
      "component": [ {
        "code": {
          "coding": [ {
            "system": "http://loinc.org",
            "code": "8480-6"
          }, {
            "system": "http://snomed.info/sct",
            "code": "271649006"
          } ],
          "text": "Systolic blood pressure"
        },
        "valueQuantity": {
          "value": 218,
          "unit": "mmHg",
          "system": "http://unitsofmeasure.org",
          "code": "mm[Hg]"
        }
      }, {
        "code": {
          "coding": [ {
            "system": "http://loinc.org",
            "code": "8462-4"
          }, {
            "system": "http://snomed.info/sct",
            "code": "271650006"
          } ],
          "text": "Diastolic blood pressure"
        },
        "valueQuantity": {
          "value": 135,
          "unit": "mmHg",
          "system": "http://unitsofmeasure.org",
          "code": "mm[Hg]"
        }
      } ]
    },
    "request": {
      "method": "POST",
      "url": "Observation",
      "ifNoneExist": "identifier=https://mein.krankenhaus.de/fhir/NamingSystem/observationId|1583f165800fcd54b8add5666619c9f517e1459de40357a8097740b9819fff2f"
    }
  }, {
    "fullUrl": "Observation/5af568087b61d2ba8508a683028841c44893e9fc5dbb4215d7282c2b7519a105",
    "resource": {
      "resourceType": "Observation",
      "meta": {
        "profile": [ "https://www.netzwerk-universitaetsmedizin.de/fhir/StructureDefinition/body-temperature" ]
      },
      "identifier": [ {
        "type": {
          "coding": [ {
            "system": "http://terminology.hl7.org/CodeSystem/v2-0203",
            "code": "OBI",
            "display": "Observation Instance Identifier"
          } ]
        },
        "system": "https://mein.krankenhaus.de/fhir/NamingSystem/observationId",
        "value": "d84d5caaf98708f26d01de619657f8dc65e1786208fb7579b0ff22cf6551ab55",
        "assigner": {
          "reference": "Organization/3a4f3433bce81181bad2d8e0b8fafccf7dc800bc06f29be73dcb38b750a48f9a"
        }
      } ],
      "status": "final",
      "category": [ {
        "coding": [ {
          "system": "http://terminology.hl7.org/CodeSystem/observation-category",
          "code": "vital-signs",
          "display": "Vital Signs"
        } ]
      } ],
      "code": {
        "coding": [ {
          "system": "http://loinc.org",
          "code": "8310-5"
        }, {
          "system": "http://snomed.info/sct",
          "code": "386725007"
        } ],
        "text": "Body temperature"
      },
      "subject": {
        "reference": "Patient/a8049a191013251ddc3044a0a349c06ef544bdc4a2a07cc80ce470ce73b94eb8"
      },
      "encounter": {
        "reference": "Encounter/9b494e3fc8734e35d6ac69d212bd41d19f0235e55a741f28dfbd47085e16e5d7"
      },
      "effectiveDateTime": "2020-03-10T10:00:00+00:00",
      "valueQuantity": {
        "value": 42.590806901953144,
        "unit": "°C",
        "system": "http://unitsofmeasure.org",
        "code": "Cel"
      }
    },
    "request": {
      "method": "POST",
      "url": "Observation",
      "ifNoneExist": "identifier=https://mein.krankenhaus.de/fhir/NamingSystem/observationId|5af568087b61d2ba8508a683028841c44893e9fc5dbb4215d7282c2b7519a105"
    }
  }, {
    "fullUrl": "Observation/cf2069236aaf2c87b42e61f93ae10e17ab1f65c181c468d73c0a0926a18ed06c",
    "resource": {
      "resourceType": "Observation",
      "meta": {
        "profile": [ "https://www.netzwerk-universitaetsmedizin.de/fhir/StructureDefinition/oxygen-saturation" ]
      },
      "identifier": [ {
        "type": {
          "coding": [ {
            "system": "http://terminology.hl7.org/CodeSystem/v2-0203",
            "code": "OBI",
            "display": "Observation Instance Identifier"
          } ]
        },
        "system": "https://mein.krankenhaus.de/fhir/NamingSystem/observationId",
        "value": "6e7478eda8a17f4fc2fee20e94992658b3cee8ceeab342f6d25746e8066522c2",
        "assigner": {
          "reference": "Organization/3a4f3433bce81181bad2d8e0b8fafccf7dc800bc06f29be73dcb38b750a48f9a"
        }
      } ],
      "status": "final",
      "category": [ {
        "coding": [ {
          "system": "http://terminology.hl7.org/CodeSystem/observation-category",
          "code": "vital-signs",
          "display": "Vital Signs"
        } ]
      } ],
      "code": {
        "coding": [ {
          "system": "http://loinc.org",
          "code": "2708-6"
        }, {
          "system": "http://loinc.org",
          "code": "59408-5"
        }, {
          "system": "http://loinc.org",
          "code": "20564-1"
        }, {
          "system": "http://snomed.info/sct",
          "code": "431314004"
        } ],
        "text": "Oxygen saturation in Arterial blood"
      },
      "subject": {
        "reference": "Patient/a8049a191013251ddc3044a0a349c06ef544bdc4a2a07cc80ce470ce73b94eb8"
      },
      "encounter": {
        "reference": "Encounter/9b494e3fc8734e35d6ac69d212bd41d19f0235e55a741f28dfbd47085e16e5d7"
      },
      "effectiveDateTime": "2020-03-10T10:00:00+00:00",
      "valueQuantity": {
        "value": 4,
        "unit": "%",
        "system": "http://unitsofmeasure.org",
        "code": "%"
      }
    },
    "request": {
      "method": "POST",
      "url": "Observation",
      "ifNoneExist": "identifier=https://mein.krankenhaus.de/fhir/NamingSystem/observationId|cf2069236aaf2c87b42e61f93ae10e17ab1f65c181c468d73c0a0926a18ed06c"
    }
  }, {
    "fullUrl": "Consent/860acf05ae81cc8849122c1e664f7371b76d7e71463552c79acedf888527d2b8",
    "resource": {
      "resourceType": "Consent",
      "meta": {
        "profile": [ "http://fhir.de/ConsentManagement/StructureDefinition/Consent" ]
      },
      "identifier": [ {
        "system": "https://mein.krankenhaus.de/fhir/NamingSystem/consentId",
        "value": "ded5cf768c6643d115217edcfd489c0e1d661fe402d2a1a9f242d0cda9a13211"
      } ],
      "status": "active",
      "scope": {
        "coding": [ {
          "system": "http://terminology.hl7.org/CodeSystem/consentcategorycodes",
          "code": "research",
          "display": "Research Information Access"
        } ]
      },
      "category": [ {
        "coding": [ {
          "system": "http://loinc.org",
          "code": "57016-8"
        } ]
      } ],
      "patient": {
        "reference": "Patient/a8049a191013251ddc3044a0a349c06ef544bdc4a2a07cc80ce470ce73b94eb8"
      },
      "dateTime": "2020-04-17",
      "organization": [ {
        "reference": "Organization/3a4f3433bce81181bad2d8e0b8fafccf7dc800bc06f29be73dcb38b750a48f9a"
      } ],
      "policy": [ {
        "uri": "https://www.medizininformatik-initiative.de/sites/default/files/2020-04/MII_AG-Consent_Einheitlicher-Mustertext_v1.6d.pdf"
      } ],
      "provision": {
        "type": "deny",
        "period": {
          "start": "2020-04-17T00:00:00+00:00",
          "end": "2050-04-17T00:00:00+00:00"
        },
        "provision": [ {
          "period": {
            "start": "2020-04-17T00:00:00+00:00",
            "end": "2050-04-17T00:00:00+00:00"
          },
          "code": [ {
            "coding": [ {
              "system": "urn:oid:2.16.840.1.113883.3.1937.777.24.5.1",
              "code": "2.16.840.1.113883.3.1937.777.24.5.1.3",
              "display": "gee_erhebung_verarbeitung"
            } ]
          } ]
        }, {
          "type": "deny",
          "period": {
            "start": "2015-04-17T00:00:00+00:00",
            "end": "2020-04-17T00:00:00+00:00"
          },
          "code": [ {
            "coding": [ {
              "system": "urn:oid:2.16.840.1.113883.3.1937.777.24.5.1",
              "code": "2.16.840.1.113883.3.1937.777.24.5.1.8",
              "display": "gee_krankenkassendaten_retro"
            } ]
          } ]
        }, {
          "type": "permit",
          "period": {
            "start": "2020-04-17T00:00:00+00:00",
            "end": "2025-04-17T00:00:00+00:00"
          },
          "code": [ {
            "coding": [ {
              "system": "urn:oid:2.16.840.1.113883.3.1937.777.24.5.1",
              "code": "2.16.840.1.113883.3.1937.777.24.5.1.10",
              "display": "gee_krankenkassendaten_pro"
            } ]
          } ]
        }, {
          "period": {
            "start": "2020-04-17T00:00:00+00:00",
            "end": "2050-04-17T00:00:00+00:00"
          },
          "code": [ {
            "coding": [ {
              "system": "urn:oid:2.16.840.1.113883.3.1937.777.24.5.1",
              "code": "2.16.840.1.113883.3.1937.777.24.5.1.15",
              "display": "gee_biomaterialien"
            } ]
          } ]
        }, {
          "period": {
            "start": "2020-04-17T00:00:00+00:00",
            "end": "2050-04-17T00:00:00+00:00"
          },
          "code": [ {
            "coding": [ {
              "system": "urn:oid:2.16.840.1.113883.3.1937.777.24.5.1",
              "code": "2.16.840.1.113883.3.1937.777.24.5.1.33",
              "display": "gee_biomaterialien_zusaetzlich"
            } ]
          } ]
        }, {
          "period": {
            "start": "2020-04-17T00:00:00+00:00",
            "end": "2050-04-17T00:00:00+00:00"
          },
          "code": [ {
            "coding": [ {
              "system": "urn:oid:2.16.840.1.113883.3.1937.777.24.5.1",
              "code": "2.16.840.1.113883.3.1937.777.24.5.1.21",
              "display": "gee_kontaktaufnahme"
            } ]
          } ]
        }, {
          "type": "deny",
          "period": {
            "start": "2020-04-17T00:00:00+00:00",
            "end": "2050-04-17T00:00:00+00:00"
          },
          "code": [ {
            "coding": [ {
              "system": "urn:oid:2.16.840.1.113883.3.1937.777.24.5.1",
              "code": "2.16.840.1.113883.3.1937.777.24.5.1.23",
              "display": "gee_kontaktaufnahme_zusatzbefunde"
            } ]
          } ]
        }, {
          "type": "permit",
          "period": {
            "start": "2020-04-17T00:00:00+00:00",
            "end": "2050-04-17T00:00:00+00:00"
          },
          "code": [ {
            "coding": [ {
              "system": "urn:oid:2.16.840.1.113883.3.1937.777.24.5.1",
              "code": "2.16.840.1.113883.3.1937.777.24.5.1.34",
              "display": "gee_projekt_codex"
            } ]
          } ]
        }, {
          "period": {
            "start": "2020-04-17T00:00:00+00:00",
            "end": "2050-04-17T00:00:00+00:00"
          },
          "code": [ {
            "coding": [ {
              "system": "urn:oid:2.16.840.1.113883.3.1937.777.24.5.1",
              "code": "2.16.840.1.113883.3.1937.777.24.5.1.39",
              "display": "gee_projekt_codex_zusatz"
            } ]
          } ]
        } ]
      }
    },
    "request": {
      "method": "POST",
      "url": "Consent",
      "ifNoneExist": "identifier=https://mein.krankenhaus.de/fhir/NamingSystem/consentId|860acf05ae81cc8849122c1e664f7371b76d7e71463552c79acedf888527d2b8"
    }
  }, {
    "fullUrl": "Observation/fb1466cf5789e762beb09e3586754fd2d32d6786f6bdcdab80370d1ed965fdc7",
    "resource": {
      "resourceType": "Observation",
      "meta": {
        "profile": [ "https://www.netzwerk-universitaetsmedizin.de/fhir/StructureDefinition/study-inclusion-covid-19" ]
      },
      "identifier": [ {
        "type": {
          "coding": [ {
            "system": "http://terminology.hl7.org/CodeSystem/v2-0203",
            "code": "OBI",
            "display": "Observation Instance Identifier"
          } ]
        },
        "system": "https://mein.krankenhaus.de/fhir/NamingSystem/observationId",
        "value": "27a0662ecac7dab7add05975921120ebae3887edfd43ce51ea06e9e131d7977f",
        "assigner": {
          "reference": "Organization/3a4f3433bce81181bad2d8e0b8fafccf7dc800bc06f29be73dcb38b750a48f9a"
        }
      } ],
      "status": "final",
      "category": [ {
        "coding": [ {
          "system": "http://terminology.hl7.org/CodeSystem/observation-category",
          "code": "survey",
          "display": "Survey"
        } ]
      } ],
      "code": {
        "coding": [ {
          "system": "https://www.netzwerk-universitaetsmedizin.de/fhir/CodeSystem/ecrf-parameter-codes",
          "code": "02",
          "display": "Study inclusion due to Covid-19"
        } ],
        "text": "Confirmed Covid-19 diagnosis as main reason for enrolment in the study"
      },
      "subject": {
        "reference": "Patient/a8049a191013251ddc3044a0a349c06ef544bdc4a2a07cc80ce470ce73b94eb8"
      },
      "_effectiveDateTime": {
        "extension": [ {
          "url": "http://hl7.org/fhir/StructureDefinition/data-absent-reason",
          "valueCode": "unknown"
        } ]
      },
      "valueCodeableConcept": {
        "coding": [ {
          "system": "http://snomed.info/sct",
          "code": "373067005"
        } ]
      }
    },
    "request": {
      "method": "POST",
      "url": "Observation",
      "ifNoneExist": "identifier=https://mein.krankenhaus.de/fhir/NamingSystem/observationId|fb1466cf5789e762beb09e3586754fd2d32d6786f6bdcdab80370d1ed965fdc7"
    }
  }, {
    "fullUrl": "Observation/0e80bd7d07bec63d972b4ffcb18e4cc3ae11463cc30abfbe8701d64568c472ae",
    "resource": {
      "resourceType": "Observation",
      "meta": {
        "profile": [ "https://www.netzwerk-universitaetsmedizin.de/fhir/StructureDefinition/interventional-clinical-trial-participation" ]
      },
      "identifier": [ {
        "type": {
          "coding": [ {
            "system": "http://terminology.hl7.org/CodeSystem/v2-0203",
            "code": "OBI",
            "display": "Observation Instance Identifier"
          } ]
        },
        "system": "https://mein.krankenhaus.de/fhir/NamingSystem/observationId",
        "value": "1357565d08faa2b65f60c5e61765512a2a6d0cb677e1359a7a7466f097748c30",
        "assigner": {
          "reference": "Organization/3a4f3433bce81181bad2d8e0b8fafccf7dc800bc06f29be73dcb38b750a48f9a"
        }
      } ],
      "status": "final",
      "category": [ {
        "coding": [ {
          "system": "http://terminology.hl7.org/CodeSystem/observation-category",
          "code": "survey",
          "display": "Survey"
        } ]
      } ],
      "code": {
        "coding": [ {
          "system": "https://www.netzwerk-universitaetsmedizin.de/fhir/CodeSystem/ecrf-parameter-codes",
          "code": "03",
          "display": "Participation in interventional clinical trials"
        } ],
        "text": "Has the patient participated in one or more interventional clinical trials?"
      },
      "subject": {
        "reference": "Patient/a8049a191013251ddc3044a0a349c06ef544bdc4a2a07cc80ce470ce73b94eb8"
      },
      "_effectiveDateTime": {
        "extension": [ {
          "url": "http://hl7.org/fhir/StructureDefinition/data-absent-reason",
          "valueCode": "unknown"
        } ]
      },
      "valueCodeableConcept": {
        "coding": [ {
          "system": "http://snomed.info/sct",
          "code": "373067005"
        } ]
      }
    },
    "request": {
      "method": "POST",
      "url": "Observation",
      "ifNoneExist": "identifier=https://mein.krankenhaus.de/fhir/NamingSystem/observationId|0e80bd7d07bec63d972b4ffcb18e4cc3ae11463cc30abfbe8701d64568c472ae"
    }
  } ]
}