{
  "resourceType": "Bundle",
  "meta": {
    "profile": [ "https://www.netzwerk-universitaetsmedizin.de/fhir/StructureDefinition/gecco-bundle" ]
  },
  "type": "transaction",
  "entry": [ {
    "fullUrl": "Patient/f50acce6bcc9db07b0d0720850badecf8b24efbca4debf78f5ac8213635d5cc7",
    "resource": {
      "resourceType": "Patient",
      "meta": {
        "profile": [ "https://www.netzwerk-universitaetsmedizin.de/fhir/StructureDefinition/Patient" ]
      },
      "extension": [ {
        "url": "https://www.netzwerk-universitaetsmedizin.de/fhir/StructureDefinition/age",
        "extension": [ {
          "url": "dateTimeOfDocumentation",
          "_valueDateTime": {
            "extension": [ {
              "url": "http://hl7.org/fhir/StructureDefinition/data-absent-reason",
              "valueCode": "unknown"
            } ]
          }
        }, {
          "url": "age",
          "valueAge": {
            "value": 70,
            "unit": "years",
            "system": "http://unitsofmeasure.org",
            "code": "a"
          }
        } ]
      } ],
      "identifier": [ {
        "type": {
          "coding": [ {
            "system": "http://terminology.hl7.org/CodeSystem/v2-0203",
            "code": "MR"
          } ]
        },
        "system": "https://mein.krankenhaus.de/fhir/NamingSystem/patientId",
        "value": "synthetic_patient_705046317",
        "assigner": {
          "reference": "Organization/3a4f3433bce81181bad2d8e0b8fafccf7dc800bc06f29be73dcb38b750a48f9a"
        }
      } ],
      "birthDate": "1951-01-17"
    },
    "request": {
      "method": "POST",
      "url": "Patient",
      "ifNoneExist": "identifier=https://mein.krankenhaus.de/fhir/NamingSystem/patientId|f50acce6bcc9db07b0d0720850badecf8b24efbca4debf78f5ac8213635d5cc7"
    }
  }, {
    "fullUrl": "Organization/3a4f3433bce81181bad2d8e0b8fafccf7dc800bc06f29be73dcb38b750a48f9a",
    "resource": {
      "resourceType": "Organization",
      "name": "Mein Krankenhaus"
    },
    "request": {
      "method": "POST",
      "url": "Organization",
      "ifNoneExist": "identifier=null|3a4f3433bce81181bad2d8e0b8fafccf7dc800bc06f29be73dcb38b750a48f9a"
    }
  }, {
    "fullUrl": "Encounter/bf74a0c7e9c8d81b6c5282c278d15a140052250d1179784429bd420ab70f9f16",
    "resource": {
      "resourceType": "Encounter",
      "identifier": [ {
        "system": "https://mein.krankenhaus.de/fhir/NamingSystem/encounterId",
        "value": "1885da9abf2ae12ac6d2cb5156c25ab6a1f25506f61c9ecb305e972a22ec116d",
        "assigner": {
          "reference": "Organization/3a4f3433bce81181bad2d8e0b8fafccf7dc800bc06f29be73dcb38b750a48f9a"
        }
      } ],
      "status": "unknown",
      "class": {
        "system": "http://terminology.hl7.org/CodeSystem/v3-ActCode",
        "code": "IMP",
        "display": "inpatient encounter"
      },
      "subject": {
        "reference": "Patient/f50acce6bcc9db07b0d0720850badecf8b24efbca4debf78f5ac8213635d5cc7"
      }
    },
    "request": {
      "method": "POST",
      "url": "Encounter",
      "ifNoneExist": "identifier=https://mein.krankenhaus.de/fhir/NamingSystem/encounterId|bf74a0c7e9c8d81b6c5282c278d15a140052250d1179784429bd420ab70f9f16"
    }
  }, {
    "fullUrl": "Condition/91df76a36a20574f1fef08163031bd1166ee51fcd5cf4cd8a2ad11625965e46d",
    "resource": {
      "resourceType": "Condition",
      "meta": {
        "profile": [ "https://www.netzwerk-universitaetsmedizin.de/fhir/StructureDefinition/diagnosis-covid-19" ]
      },
      "identifier": [ {
        "system": "https://mein.krankenhaus.de/fhir/NamingSystem/conditionId",
        "value": "6fe3869402679842138137c54c225a774c42e4de1ceb269b7220382333c1ddee"
      } ],
      "clinicalStatus": {
        "coding": [ {
          "system": "http://terminology.hl7.org/CodeSystem/condition-clinical",
          "code": "active",
          "display": "Active"
        } ]
      },
      "verificationStatus": {
        "coding": [ {
          "system": "http://terminology.hl7.org/CodeSystem/condition-ver-status",
          "code": "confirmed",
          "display": "Confirmed"
        }, {
          "system": "http://snomed.info/sct",
          "code": "410605003",
          "display": "Confirmed present (qualifier value)"
        } ]
      },
      "category": [ {
        "coding": [ {
          "system": "http://snomed.info/sct",
          "code": "394807007",
          "display": "Infectious diseases (specialty) (qualifier value)"
        } ]
      } ],
      "code": {
        "coding": [ {
          "system": "http://snomed.info/sct",
          "code": "840539006",
          "display": "Disease caused by Severe acute respiratory syndrome coronavirus 2 (disorder)"
        } ]
      },
      "subject": {
        "reference": "Patient/f50acce6bcc9db07b0d0720850badecf8b24efbca4debf78f5ac8213635d5cc7"
      },
      "encounter": {
        "reference": "Encounter/bf74a0c7e9c8d81b6c5282c278d15a140052250d1179784429bd420ab70f9f16"
      },
      "_recordedDate": {
        "extension": [ {
          "url": "http://hl7.org/fhir/StructureDefinition/data-absent-reason",
          "valueCode": "unknown"
        } ]
      },
      "stage": [ {
        "summary": {
          "coding": [ {
            "system": "http://snomed.info/sct",
            "code": "255604002"
          } ]
        },
        "type": {
          "coding": [ {
            "system": "http://loinc.org",
            "code": "88859-4"
          } ]
        }
      } ]
    },
    "request": {
      "method": "POST",
      "url": "Condition",
      "ifNoneExist": "identifier=https://mein.krankenhaus.de/fhir/NamingSystem/conditionId|91df76a36a20574f1fef08163031bd1166ee51fcd5cf4cd8a2ad11625965e46d"
    }
  }, {
    "fullUrl": "Condition/fc04cf69870d7f4a0a3f2e916bdb1498eed10b1a74f54a15ca29aa2ac9811bb6",
    "resource": {
      "resourceType": "Condition",
      "meta": {
        "profile": [ "https://www.netzwerk-universitaetsmedizin.de/fhir/StructureDefinition/human-immunodeficiency-virus-infection" ]
      },
      "modifierExtension": [ {
        "url": "https://www.netzwerk-universitaetsmedizin.de/fhir/StructureDefinition/uncertainty-of-presence",
        "valueCodeableConcept": {
          "coding": [ {
            "system": "http://snomed.info/sct",
            "code": "261665006",
            "display": "Unknown (qualifier value)"
          } ],
          "text": "Presence unknown."
        }
      } ],
      "identifier": [ {
        "system": "https://mein.krankenhaus.de/fhir/NamingSystem/conditionId",
        "value": "cc205f6175b63134d7ca0b87f4703a0166deef9542887348c52a8187ea795e1b"
      } ],
      "category": [ {
        "coding": [ {
          "system": "http://snomed.info/sct",
          "code": "394807007",
          "display": "Infectious diseases (specialty) (qualifier value)"
        } ]
      } ],
      "code": {
        "coding": [ {
          "system": "http://fhir.de/CodeSystem/dimdi/icd-10-gm",
          "version": "2021",
          "code": "B24"
        }, {
          "system": "http://snomed.info/sct",
          "code": "86406008"
        } ]
      },
      "subject": {
        "reference": "Patient/f50acce6bcc9db07b0d0720850badecf8b24efbca4debf78f5ac8213635d5cc7"
      },
      "encounter": {
        "reference": "Encounter/bf74a0c7e9c8d81b6c5282c278d15a140052250d1179784429bd420ab70f9f16"
      },
      "_recordedDate": {
        "extension": [ {
          "url": "http://hl7.org/fhir/StructureDefinition/data-absent-reason",
          "valueCode": "unknown"
        } ]
      }
    },
    "request": {
      "method": "POST",
      "url": "Condition",
      "ifNoneExist": "identifier=https://mein.krankenhaus.de/fhir/NamingSystem/conditionId|fc04cf69870d7f4a0a3f2e916bdb1498eed10b1a74f54a15ca29aa2ac9811bb6"
    }
  }, {
    "fullUrl": "Condition/03b601947081e9761d72895637a3247360b8eaec2538720c1b3232c1926c53e0",
    "resource": {
      "resourceType": "Condition",
      "meta": {
        "profile": [ "https://www.netzwerk-universitaetsmedizin.de/fhir/StructureDefinition/diabetes-mellitus" ]
      },
      "modifierExtension": [ {
        "url": "https://www.netzwerk-universitaetsmedizin.de/fhir/StructureDefinition/uncertainty-of-presence",
        "valueCodeableConcept": {
          "coding": [ {
            "system": "http://snomed.info/sct",
            "code": "261665006",
            "display": "Unknown (qualifier value)"
          } ],
          "text": "Presence unknown."
        }
      } ],
      "identifier": [ {
        "system": "https://mein.krankenhaus.de/fhir/NamingSystem/conditionId",
        "value": "b928502c1c53d98f2df8c6589b404de9e98f759339acae4b1d85b8617b5bf554"
      } ],
      "category": [ {
        "coding": [ {
          "system": "http://snomed.info/sct",
          "code": "408475000",
          "display": "Diabetic medicine (qualifier value)"
        } ]
      } ],
      "code": {
        "coding": [ {
          "system": "http://fhir.de/CodeSystem/dimdi/icd-10-gm",
          "version": "2021",
          "code": "E14"
        }, {
          "system": "http://snomed.info/sct",
          "code": "73211009"
        } ]
      },
      "subject": {
        "reference": "Patient/f50acce6bcc9db07b0d0720850badecf8b24efbca4debf78f5ac8213635d5cc7"
      },
      "encounter": {
        "reference": "Encounter/bf74a0c7e9c8d81b6c5282c278d15a140052250d1179784429bd420ab70f9f16"
      },
      "_recordedDate": {
        "extension": [ {
          "url": "http://hl7.org/fhir/StructureDefinition/data-absent-reason",
          "valueCode": "unknown"
        } ]
      }
    },
    "request": {
      "method": "POST",
      "url": "Condition",
      "ifNoneExist": "identifier=https://mein.krankenhaus.de/fhir/NamingSystem/conditionId|03b601947081e9761d72895637a3247360b8eaec2538720c1b3232c1926c53e0"
    }
  }, {
    "fullUrl": "Condition/5e3202e22f79eaa914003fd1b74db4622f694079b0f07aa6f0d343858be14ba3",
    "resource": {
      "resourceType": "Condition",
      "meta": {
        "profile": [ "https://www.netzwerk-universitaetsmedizin.de/fhir/StructureDefinition/malignant-neoplastic-disease" ]
      },
      "identifier": [ {
        "system": "https://mein.krankenhaus.de/fhir/NamingSystem/conditionId",
        "value": "4e3bcfb9e950d83de9e08eaf80ebdbbd053bbcf1c2c76b9dcabf5850fc79bcce"
      } ],
      "verificationStatus": {
        "coding": [ {
          "system": "http://terminology.hl7.org/CodeSystem/condition-ver-status",
          "code": "refuted",
          "display": "Refuted"
        }, {
          "system": "http://snomed.info/sct",
          "code": "410594000",
          "display": "Definitely NOT present (qualifier value)"
        } ]
      },
      "category": [ {
        "coding": [ {
          "system": "http://snomed.info/sct",
          "code": "394593009",
          "display": "Medical oncology (qualifier value)"
        } ]
      } ],
      "code": {
        "coding": [ {
          "system": "http://fhir.de/CodeSystem/dimdi/icd-10-gm",
          "version": "2021",
          "code": "C80.9"
        }, {
          "system": "http://snomed.info/sct",
          "code": "363346000"
        } ]
      },
      "subject": {
        "reference": "Patient/f50acce6bcc9db07b0d0720850badecf8b24efbca4debf78f5ac8213635d5cc7"
      },
      "encounter": {
        "reference": "Encounter/bf74a0c7e9c8d81b6c5282c278d15a140052250d1179784429bd420ab70f9f16"
      },
      "_recordedDate": {
        "extension": [ {
          "url": "http://hl7.org/fhir/StructureDefinition/data-absent-reason",
          "valueCode": "unknown"
        } ]
      }
    },
    "request": {
      "method": "POST",
      "url": "Condition",
      "ifNoneExist": "identifier=https://mein.krankenhaus.de/fhir/NamingSystem/conditionId|5e3202e22f79eaa914003fd1b74db4622f694079b0f07aa6f0d343858be14ba3"
    }
  }, {
    "fullUrl": "Condition/5df3214eb204bddbe10aac855fbfb9b4bcd8415109010e2f4e4a17ecae06915a",
    "resource": {
      "resourceType": "Condition",
      "meta": {
        "profile": [ "https://www.netzwerk-universitaetsmedizin.de/fhir/StructureDefinition/chronic-kidney-diseases" ]
      },
      "modifierExtension": [ {
        "url": "https://www.netzwerk-universitaetsmedizin.de/fhir/StructureDefinition/uncertainty-of-presence",
        "valueCodeableConcept": {
          "coding": [ {
            "system": "http://snomed.info/sct",
            "code": "261665006",
            "display": "Unknown (qualifier value)"
          } ],
          "text": "Presence unknown."
        }
      } ],
      "identifier": [ {
        "system": "https://mein.krankenhaus.de/fhir/NamingSystem/conditionId",
        "value": "6f41b19f7064222903fb981a38d0a74d69b36a3014424570e17070900ffce860"
      } ],
      "category": [ {
        "coding": [ {
          "system": "http://snomed.info/sct",
          "code": "394589003",
          "display": "Nephrology (qualifier value)"
        } ]
      } ],
      "code": {
        "coding": [ {
          "system": "http://fhir.de/CodeSystem/dimdi/icd-10-gm",
          "version": "2021",
          "code": "N18.9"
        }, {
          "system": "http://snomed.info/sct",
          "code": "709044004"
        } ]
      },
      "subject": {
        "reference": "Patient/f50acce6bcc9db07b0d0720850badecf8b24efbca4debf78f5ac8213635d5cc7"
      },
      "encounter": {
        "reference": "Encounter/bf74a0c7e9c8d81b6c5282c278d15a140052250d1179784429bd420ab70f9f16"
      },
      "_recordedDate": {
        "extension": [ {
          "url": "http://hl7.org/fhir/StructureDefinition/data-absent-reason",
          "valueCode": "unknown"
        } ]
      }
    },
    "request": {
      "method": "POST",
      "url": "Condition",
      "ifNoneExist": "identifier=https://mein.krankenhaus.de/fhir/NamingSystem/conditionId|5df3214eb204bddbe10aac855fbfb9b4bcd8415109010e2f4e4a17ecae06915a"
    }
  }, {
    "fullUrl": "Condition/d31a7907aff1000f6368733c7448440099eff9d1ede112560648489c2aca4044",
    "resource": {
      "resourceType": "Condition",
      "meta": {
        "profile": [ "https://www.netzwerk-universitaetsmedizin.de/fhir/StructureDefinition/gastrointestinal-ulcers" ]
      },
      "modifierExtension": [ {
        "url": "https://www.netzwerk-universitaetsmedizin.de/fhir/StructureDefinition/uncertainty-of-presence",
        "valueCodeableConcept": {
          "coding": [ {
            "system": "http://snomed.info/sct",
            "code": "261665006",
            "display": "Unknown (qualifier value)"
          } ],
          "text": "Presence unknown."
        }
      } ],
      "identifier": [ {
        "system": "https://mein.krankenhaus.de/fhir/NamingSystem/conditionId",
        "value": "366b2773b3c40933fec4a4181341c0ed96a4c2bf4da3ee5060a5f6f807921c96"
      } ],
      "category": [ {
        "coding": [ {
          "system": "http://snomed.info/sct",
          "code": "394584008",
          "display": "Gastroenterology (qualifier value))"
        } ]
      } ],
      "code": {
        "coding": [ {
          "system": "http://fhir.de/CodeSystem/dimdi/icd-10-gm",
          "version": "2021",
          "code": "K28"
        }, {
          "system": "http://snomed.info/sct",
          "code": "40845000"
        } ]
      },
      "subject": {
        "reference": "Patient/f50acce6bcc9db07b0d0720850badecf8b24efbca4debf78f5ac8213635d5cc7"
      },
      "encounter": {
        "reference": "Encounter/bf74a0c7e9c8d81b6c5282c278d15a140052250d1179784429bd420ab70f9f16"
      },
      "_recordedDate": {
        "extension": [ {
          "url": "http://hl7.org/fhir/StructureDefinition/data-absent-reason",
          "valueCode": "unknown"
        } ]
      }
    },
    "request": {
      "method": "POST",
      "url": "Condition",
      "ifNoneExist": "identifier=https://mein.krankenhaus.de/fhir/NamingSystem/conditionId|d31a7907aff1000f6368733c7448440099eff9d1ede112560648489c2aca4044"
    }
  }, {
    "fullUrl": "Observation/b6c1095c2fb4a7a350940065096b65eb2f5601bec84dccbfe979eea26c36bced",
    "resource": {
      "resourceType": "Observation",
      "meta": {
        "profile": [ "https://www.netzwerk-universitaetsmedizin.de/fhir/StructureDefinition/history-of-travel" ]
      },
      "identifier": [ {
        "type": {
          "coding": [ {
            "system": "http://terminology.hl7.org/CodeSystem/v2-0203",
            "code": "OBI",
            "display": "Observation Instance Identifier"
          } ]
        },
        "system": "https://mein.krankenhaus.de/fhir/NamingSystem/observationId",
        "value": "dec2b8c0ade039a857eaa2a056d540ee2ab89b49f67c3d68b1e8268a9a14119b",
        "assigner": {
          "reference": "Organization/3a4f3433bce81181bad2d8e0b8fafccf7dc800bc06f29be73dcb38b750a48f9a"
        }
      } ],
      "status": "final",
      "category": [ {
        "coding": [ {
          "system": "http://terminology.hl7.org/CodeSystem/observation-category",
          "code": "social-history",
          "display": "Social History"
        } ]
      } ],
      "code": {
        "coding": [ {
          "system": "http://loinc.org",
          "code": "8691-8"
        }, {
          "system": "http://snomed.info/sct",
          "code": "443846001"
        } ],
        "text": "History of Travel"
      },
      "subject": {
        "reference": "Patient/f50acce6bcc9db07b0d0720850badecf8b24efbca4debf78f5ac8213635d5cc7"
      },
      "encounter": {
        "reference": "Encounter/bf74a0c7e9c8d81b6c5282c278d15a140052250d1179784429bd420ab70f9f16"
      },
      "_effectiveDateTime": {
        "extension": [ {
          "url": "http://hl7.org/fhir/StructureDefinition/data-absent-reason",
          "valueCode": "unknown"
        } ]
      },
      "valueCodeableConcept": {
        "coding": [ {
          "system": "http://snomed.info/sct",
          "code": "373066001"
        } ]
      },
      "component": [ {
        "code": {
          "coding": [ {
            "system": "http://loinc.org",
            "code": "82752-7",
            "display": "Date travel started"
          } ],
          "text": "Travel start date"
        },
        "valueDateTime": "2020-03-10"
      }, {
        "code": {
          "coding": [ {
            "system": "http://loinc.org",
            "code": "94651-7",
            "display": "Country of travel"
          } ],
          "text": "Country of travel"
        },
        "valueCodeableConcept": {
          "coding": [ {
            "system": "urn:iso:std:iso:3166",
            "code": "AE",
            "display": "United Arab Emirates"
          } ],
          "text": "United Arab Emirates"
        }
      } ]
    },
    "request": {
      "method": "POST",
      "url": "Observation",
      "ifNoneExist": "identifier=https://mein.krankenhaus.de/fhir/NamingSystem/observationId|b6c1095c2fb4a7a350940065096b65eb2f5601bec84dccbfe979eea26c36bced"
    }
  }, {
    "fullUrl": "Observation/e2ac7ff4317973e525ed4207ec7182a368727f862435ae8513da105257656f5e",
    "resource": {
      "resourceType": "Observation",
      "meta": {
        "profile": [ "https://www.netzwerk-universitaetsmedizin.de/fhir/StructureDefinition/history-of-travel" ]
      },
      "identifier": [ {
        "type": {
          "coding": [ {
            "system": "http://terminology.hl7.org/CodeSystem/v2-0203",
            "code": "OBI",
            "display": "Observation Instance Identifier"
          } ]
        },
        "system": "https://mein.krankenhaus.de/fhir/NamingSystem/observationId",
        "value": "afde19781287be387d3b4217c5a964502b65dc1b6c48377559b64240ee69cb8e",
        "assigner": {
          "reference": "Organization/3a4f3433bce81181bad2d8e0b8fafccf7dc800bc06f29be73dcb38b750a48f9a"
        }
      } ],
      "status": "final",
      "category": [ {
        "coding": [ {
          "system": "http://terminology.hl7.org/CodeSystem/observation-category",
          "code": "social-history",
          "display": "Social History"
        } ]
      } ],
      "code": {
        "coding": [ {
          "system": "http://loinc.org",
          "code": "8691-8"
        }, {
          "system": "http://snomed.info/sct",
          "code": "443846001"
        } ],
        "text": "History of Travel"
      },
      "subject": {
        "reference": "Patient/f50acce6bcc9db07b0d0720850badecf8b24efbca4debf78f5ac8213635d5cc7"
      },
      "encounter": {
        "reference": "Encounter/bf74a0c7e9c8d81b6c5282c278d15a140052250d1179784429bd420ab70f9f16"
      },
      "_effectiveDateTime": {
        "extension": [ {
          "url": "http://hl7.org/fhir/StructureDefinition/data-absent-reason",
          "valueCode": "unknown"
        } ]
      },
      "valueCodeableConcept": {
        "coding": [ {
          "system": "http://snomed.info/sct",
          "code": "373066001"
        } ]
      },
      "component": [ {
        "code": {
          "coding": [ {
            "system": "http://loinc.org",
            "code": "82752-7",
            "display": "Date travel started"
          } ],
          "text": "Travel start date"
        },
        "valueDateTime": "2020-01-03"
      }, {
        "code": {
          "coding": [ {
            "system": "http://loinc.org",
            "code": "91560-3",
            "display": "Date of departure from travel destination"
          } ],
          "text": "Travel end date"
        },
        "valueDateTime": "2020-12-27"
      }, {
        "code": {
          "coding": [ {
            "system": "http://loinc.org",
            "code": "94651-7",
            "display": "Country of travel"
          } ],
          "text": "Country of travel"
        },
        "valueCodeableConcept": {
          "coding": [ {
            "system": "urn:iso:std:iso:3166",
            "code": "IS",
            "display": "Iceland"
          } ],
          "text": "Iceland"
        }
      } ]
    },
    "request": {
      "method": "POST",
      "url": "Observation",
      "ifNoneExist": "identifier=https://mein.krankenhaus.de/fhir/NamingSystem/observationId|e2ac7ff4317973e525ed4207ec7182a368727f862435ae8513da105257656f5e"
    }
  }, {
    "fullUrl": "Observation/96fe623530c3a24fbfc5f835f91a1c2bb14c19741a903c2f4de2046e9083af92",
    "resource": {
      "resourceType": "Observation",
      "meta": {
        "profile": [ "https://www.netzwerk-universitaetsmedizin.de/fhir/StructureDefinition/history-of-travel" ]
      },
      "identifier": [ {
        "type": {
          "coding": [ {
            "system": "http://terminology.hl7.org/CodeSystem/v2-0203",
            "code": "OBI",
            "display": "Observation Instance Identifier"
          } ]
        },
        "system": "https://mein.krankenhaus.de/fhir/NamingSystem/observationId",
        "value": "fff7623894d2ec1bd27c73d793e4eccb713adf7f1632295e84917d283eba8e5d",
        "assigner": {
          "reference": "Organization/3a4f3433bce81181bad2d8e0b8fafccf7dc800bc06f29be73dcb38b750a48f9a"
        }
      } ],
      "status": "final",
      "category": [ {
        "coding": [ {
          "system": "http://terminology.hl7.org/CodeSystem/observation-category",
          "code": "social-history",
          "display": "Social History"
        } ]
      } ],
      "code": {
        "coding": [ {
          "system": "http://loinc.org",
          "code": "8691-8"
        }, {
          "system": "http://snomed.info/sct",
          "code": "443846001"
        } ],
        "text": "History of Travel"
      },
      "subject": {
        "reference": "Patient/f50acce6bcc9db07b0d0720850badecf8b24efbca4debf78f5ac8213635d5cc7"
      },
      "encounter": {
        "reference": "Encounter/bf74a0c7e9c8d81b6c5282c278d15a140052250d1179784429bd420ab70f9f16"
      },
      "_effectiveDateTime": {
        "extension": [ {
          "url": "http://hl7.org/fhir/StructureDefinition/data-absent-reason",
          "valueCode": "unknown"
        } ]
      },
      "valueCodeableConcept": {
        "coding": [ {
          "system": "http://snomed.info/sct",
          "code": "373066001"
        } ]
      },
      "component": [ {
        "code": {
          "coding": [ {
            "system": "http://loinc.org",
            "code": "82752-7",
            "display": "Date travel started"
          } ],
          "text": "Travel start date"
        },
        "valueDateTime": "2020-02-21"
      }, {
        "code": {
          "coding": [ {
            "system": "http://loinc.org",
            "code": "91560-3",
            "display": "Date of departure from travel destination"
          } ],
          "text": "Travel end date"
        },
        "valueDateTime": "2020-04-22"
      }, {
        "code": {
          "coding": [ {
            "system": "http://loinc.org",
            "code": "94651-7",
            "display": "Country of travel"
          } ],
          "text": "Country of travel"
        },
        "valueCodeableConcept": {
          "coding": [ {
            "system": "urn:iso:std:iso:3166",
            "code": "CW",
            "display": "Curaçao"
          } ],
          "text": "Curaçao"
        }
      } ]
    },
    "request": {
      "method": "POST",
      "url": "Observation",
      "ifNoneExist": "identifier=https://mein.krankenhaus.de/fhir/NamingSystem/observationId|96fe623530c3a24fbfc5f835f91a1c2bb14c19741a903c2f4de2046e9083af92"
    }
  }, {
    "fullUrl": "Observation/1891545778eb23aef78d93252abe53d7936bf7255d5fd9c534f20d88c478ccc6",
    "resource": {
      "resourceType": "Observation",
      "meta": {
        "profile": [ "https://www.netzwerk-universitaetsmedizin.de/fhir/StructureDefinition/history-of-travel" ]
      },
      "identifier": [ {
        "type": {
          "coding": [ {
            "system": "http://terminology.hl7.org/CodeSystem/v2-0203",
            "code": "OBI",
            "display": "Observation Instance Identifier"
          } ]
        },
        "system": "https://mein.krankenhaus.de/fhir/NamingSystem/observationId",
        "value": "eb6a7c83c2eb157c7435854e73dbdaa3ce80b9bc51ff1c0a05c9b39109ab038b",
        "assigner": {
          "reference": "Organization/3a4f3433bce81181bad2d8e0b8fafccf7dc800bc06f29be73dcb38b750a48f9a"
        }
      } ],
      "status": "final",
      "category": [ {
        "coding": [ {
          "system": "http://terminology.hl7.org/CodeSystem/observation-category",
          "code": "social-history",
          "display": "Social History"
        } ]
      } ],
      "code": {
        "coding": [ {
          "system": "http://loinc.org",
          "code": "8691-8"
        }, {
          "system": "http://snomed.info/sct",
          "code": "443846001"
        } ],
        "text": "History of Travel"
      },
      "subject": {
        "reference": "Patient/f50acce6bcc9db07b0d0720850badecf8b24efbca4debf78f5ac8213635d5cc7"
      },
      "encounter": {
        "reference": "Encounter/bf74a0c7e9c8d81b6c5282c278d15a140052250d1179784429bd420ab70f9f16"
      },
      "_effectiveDateTime": {
        "extension": [ {
          "url": "http://hl7.org/fhir/StructureDefinition/data-absent-reason",
          "valueCode": "unknown"
        } ]
      },
      "valueCodeableConcept": {
        "coding": [ {
          "system": "http://snomed.info/sct",
          "code": "373066001"
        } ]
      },
      "component": [ {
        "code": {
          "coding": [ {
            "system": "http://loinc.org",
            "code": "82752-7",
            "display": "Date travel started"
          } ],
          "text": "Travel start date"
        },
        "valueDateTime": "2020-12-20"
      }, {
        "code": {
          "coding": [ {
            "system": "http://loinc.org",
            "code": "91560-3",
            "display": "Date of departure from travel destination"
          } ],
          "text": "Travel end date"
        },
        "valueDateTime": "2020-06-17"
      }, {
        "code": {
          "coding": [ {
            "system": "http://loinc.org",
            "code": "94651-7",
            "display": "Country of travel"
          } ],
          "text": "Country of travel"
        },
        "valueCodeableConcept": {
          "coding": [ {
            "system": "urn:iso:std:iso:3166",
            "code": "NC",
            "display": "New Caledonia"
          } ],
          "text": "New Caledonia"
        }
      } ]
    },
    "request": {
      "method": "POST",
      "url": "Observation",
      "ifNoneExist": "identifier=https://mein.krankenhaus.de/fhir/NamingSystem/observationId|1891545778eb23aef78d93252abe53d7936bf7255d5fd9c534f20d88c478ccc6"
    }
  }, {
    "fullUrl": "Observation/ce0ae0139ff4b58027adac33c1ecb1184a212b623ca9983158d758b96298a530",
    "resource": {
      "resourceType": "Observation",
      "meta": {
        "profile": [ "https://www.netzwerk-universitaetsmedizin.de/fhir/StructureDefinition/history-of-travel" ]
      },
      "identifier": [ {
        "type": {
          "coding": [ {
            "system": "http://terminology.hl7.org/CodeSystem/v2-0203",
            "code": "OBI",
            "display": "Observation Instance Identifier"
          } ]
        },
        "system": "https://mein.krankenhaus.de/fhir/NamingSystem/observationId",
        "value": "1b3c84a088c9318612b0cc7aa991e6327e01dd73731563fbd1a8d5bac71e9036",
        "assigner": {
          "reference": "Organization/3a4f3433bce81181bad2d8e0b8fafccf7dc800bc06f29be73dcb38b750a48f9a"
        }
      } ],
      "status": "final",
      "category": [ {
        "coding": [ {
          "system": "http://terminology.hl7.org/CodeSystem/observation-category",
          "code": "social-history",
          "display": "Social History"
        } ]
      } ],
      "code": {
        "coding": [ {
          "system": "http://loinc.org",
          "code": "8691-8"
        }, {
          "system": "http://snomed.info/sct",
          "code": "443846001"
        } ],
        "text": "History of Travel"
      },
      "subject": {
        "reference": "Patient/f50acce6bcc9db07b0d0720850badecf8b24efbca4debf78f5ac8213635d5cc7"
      },
      "encounter": {
        "reference": "Encounter/bf74a0c7e9c8d81b6c5282c278d15a140052250d1179784429bd420ab70f9f16"
      },
      "_effectiveDateTime": {
        "extension": [ {
          "url": "http://hl7.org/fhir/StructureDefinition/data-absent-reason",
          "valueCode": "unknown"
        } ]
      },
      "valueCodeableConcept": {
        "coding": [ {
          "system": "http://snomed.info/sct",
          "code": "373066001"
        } ]
      },
      "component": [ {
        "code": {
          "coding": [ {
            "system": "http://loinc.org",
            "code": "82752-7",
            "display": "Date travel started"
          } ],
          "text": "Travel start date"
        },
        "valueDateTime": "2020-07-16"
      }, {
        "code": {
          "coding": [ {
            "system": "http://loinc.org",
            "code": "91560-3",
            "display": "Date of departure from travel destination"
          } ],
          "text": "Travel end date"
        },
        "valueDateTime": "2020-09-12"
      }, {
        "code": {
          "coding": [ {
            "system": "http://loinc.org",
            "code": "94651-7",
            "display": "Country of travel"
          } ],
          "text": "Country of travel"
        },
        "valueCodeableConcept": {
          "coding": [ {
            "system": "urn:iso:std:iso:3166",
            "code": "MM",
            "display": "Myanmar (Burma)"
          } ],
          "text": "Myanmar (Burma)"
        }
      } ]
    },
    "request": {
      "method": "POST",
      "url": "Observation",
      "ifNoneExist": "identifier=https://mein.krankenhaus.de/fhir/NamingSystem/observationId|ce0ae0139ff4b58027adac33c1ecb1184a212b623ca9983158d758b96298a530"
    }
  }, {
    "fullUrl": "Observation/85d225fac57f794bbcd458c34522bafc42888f83310c6dfb98e87f6c10f93491",
    "resource": {
      "resourceType": "Observation",
      "meta": {
        "profile": [ "https://www.netzwerk-universitaetsmedizin.de/fhir/StructureDefinition/history-of-travel" ]
      },
      "identifier": [ {
        "type": {
          "coding": [ {
            "system": "http://terminology.hl7.org/CodeSystem/v2-0203",
            "code": "OBI",
            "display": "Observation Instance Identifier"
          } ]
        },
        "system": "https://mein.krankenhaus.de/fhir/NamingSystem/observationId",
        "value": "011cf401a33a1cc2e1b5044704b82e0acd0026ef4084fa245679dddae03f88f2",
        "assigner": {
          "reference": "Organization/3a4f3433bce81181bad2d8e0b8fafccf7dc800bc06f29be73dcb38b750a48f9a"
        }
      } ],
      "status": "final",
      "category": [ {
        "coding": [ {
          "system": "http://terminology.hl7.org/CodeSystem/observation-category",
          "code": "social-history",
          "display": "Social History"
        } ]
      } ],
      "code": {
        "coding": [ {
          "system": "http://loinc.org",
          "code": "8691-8"
        }, {
          "system": "http://snomed.info/sct",
          "code": "443846001"
        } ],
        "text": "History of Travel"
      },
      "subject": {
        "reference": "Patient/f50acce6bcc9db07b0d0720850badecf8b24efbca4debf78f5ac8213635d5cc7"
      },
      "encounter": {
        "reference": "Encounter/bf74a0c7e9c8d81b6c5282c278d15a140052250d1179784429bd420ab70f9f16"
      },
      "_effectiveDateTime": {
        "extension": [ {
          "url": "http://hl7.org/fhir/StructureDefinition/data-absent-reason",
          "valueCode": "unknown"
        } ]
      },
      "valueCodeableConcept": {
        "coding": [ {
          "system": "http://snomed.info/sct",
          "code": "373066001"
        } ]
      },
      "component": [ {
        "code": {
          "coding": [ {
            "system": "http://loinc.org",
            "code": "82752-7",
            "display": "Date travel started"
          } ],
          "text": "Travel start date"
        },
        "valueDateTime": "2020-03-31"
      }, {
        "code": {
          "coding": [ {
            "system": "http://loinc.org",
            "code": "91560-3",
            "display": "Date of departure from travel destination"
          } ],
          "text": "Travel end date"
        },
        "valueDateTime": "2020-09-15"
      }, {
        "code": {
          "coding": [ {
            "system": "http://loinc.org",
            "code": "94651-7",
            "display": "Country of travel"
          } ],
          "text": "Country of travel"
        },
        "valueCodeableConcept": {
          "coding": [ {
            "system": "urn:iso:std:iso:3166",
            "code": "GM",
            "display": "Gambia"
          } ],
          "text": "Gambia"
        }
      } ]
    },
    "request": {
      "method": "POST",
      "url": "Observation",
      "ifNoneExist": "identifier=https://mein.krankenhaus.de/fhir/NamingSystem/observationId|85d225fac57f794bbcd458c34522bafc42888f83310c6dfb98e87f6c10f93491"
    }
  }, {
    "fullUrl": "Observation/ae6ef6368411c0de1f976ddf2aa4f61a978632b63e0e5939db48c7fcb42dc086",
    "resource": {
      "resourceType": "Observation",
      "meta": {
        "profile": [ "https://www.netzwerk-universitaetsmedizin.de/fhir/StructureDefinition/history-of-travel" ]
      },
      "identifier": [ {
        "type": {
          "coding": [ {
            "system": "http://terminology.hl7.org/CodeSystem/v2-0203",
            "code": "OBI",
            "display": "Observation Instance Identifier"
          } ]
        },
        "system": "https://mein.krankenhaus.de/fhir/NamingSystem/observationId",
        "value": "af53b1b6c83863105a24167a557fd17c2b2027c68816638069d763033b48c5ff",
        "assigner": {
          "reference": "Organization/3a4f3433bce81181bad2d8e0b8fafccf7dc800bc06f29be73dcb38b750a48f9a"
        }
      } ],
      "status": "final",
      "category": [ {
        "coding": [ {
          "system": "http://terminology.hl7.org/CodeSystem/observation-category",
          "code": "social-history",
          "display": "Social History"
        } ]
      } ],
      "code": {
        "coding": [ {
          "system": "http://loinc.org",
          "code": "8691-8"
        }, {
          "system": "http://snomed.info/sct",
          "code": "443846001"
        } ],
        "text": "History of Travel"
      },
      "subject": {
        "reference": "Patient/f50acce6bcc9db07b0d0720850badecf8b24efbca4debf78f5ac8213635d5cc7"
      },
      "encounter": {
        "reference": "Encounter/bf74a0c7e9c8d81b6c5282c278d15a140052250d1179784429bd420ab70f9f16"
      },
      "_effectiveDateTime": {
        "extension": [ {
          "url": "http://hl7.org/fhir/StructureDefinition/data-absent-reason",
          "valueCode": "unknown"
        } ]
      },
      "valueCodeableConcept": {
        "coding": [ {
          "system": "http://snomed.info/sct",
          "code": "373066001"
        } ]
      },
      "component": [ {
        "code": {
          "coding": [ {
            "system": "http://loinc.org",
            "code": "82752-7",
            "display": "Date travel started"
          } ],
          "text": "Travel start date"
        },
        "valueDateTime": "2020-11-08"
      }, {
        "code": {
          "coding": [ {
            "system": "http://loinc.org",
            "code": "91560-3",
            "display": "Date of departure from travel destination"
          } ],
          "text": "Travel end date"
        },
        "valueDateTime": "2020-06-30"
      }, {
        "code": {
          "coding": [ {
            "system": "http://loinc.org",
            "code": "94651-7",
            "display": "Country of travel"
          } ],
          "text": "Country of travel"
        },
        "valueCodeableConcept": {
          "coding": [ {
            "system": "urn:iso:std:iso:3166",
            "code": "IT",
            "display": "Italy"
          } ],
          "text": "Italy"
        }
      } ]
    },
    "request": {
      "method": "POST",
      "url": "Observation",
      "ifNoneExist": "identifier=https://mein.krankenhaus.de/fhir/NamingSystem/observationId|ae6ef6368411c0de1f976ddf2aa4f61a978632b63e0e5939db48c7fcb42dc086"
    }
  }, {
    "fullUrl": "Observation/c17f1d4595c574b362a056aea65332fa1a3b5b4f75f943978238792bbd977102",
    "resource": {
      "resourceType": "Observation",
      "meta": {
        "profile": [ "https://www.netzwerk-universitaetsmedizin.de/fhir/StructureDefinition/history-of-travel" ]
      },
      "identifier": [ {
        "type": {
          "coding": [ {
            "system": "http://terminology.hl7.org/CodeSystem/v2-0203",
            "code": "OBI",
            "display": "Observation Instance Identifier"
          } ]
        },
        "system": "https://mein.krankenhaus.de/fhir/NamingSystem/observationId",
        "value": "d016a537af4e389ce4e9395d2a09ba6363fdb3bf31fcdf175fc5e218b0d25081",
        "assigner": {
          "reference": "Organization/3a4f3433bce81181bad2d8e0b8fafccf7dc800bc06f29be73dcb38b750a48f9a"
        }
      } ],
      "status": "final",
      "category": [ {
        "coding": [ {
          "system": "http://terminology.hl7.org/CodeSystem/observation-category",
          "code": "social-history",
          "display": "Social History"
        } ]
      } ],
      "code": {
        "coding": [ {
          "system": "http://loinc.org",
          "code": "8691-8"
        }, {
          "system": "http://snomed.info/sct",
          "code": "443846001"
        } ],
        "text": "History of Travel"
      },
      "subject": {
        "reference": "Patient/f50acce6bcc9db07b0d0720850badecf8b24efbca4debf78f5ac8213635d5cc7"
      },
      "encounter": {
        "reference": "Encounter/bf74a0c7e9c8d81b6c5282c278d15a140052250d1179784429bd420ab70f9f16"
      },
      "_effectiveDateTime": {
        "extension": [ {
          "url": "http://hl7.org/fhir/StructureDefinition/data-absent-reason",
          "valueCode": "unknown"
        } ]
      },
      "valueCodeableConcept": {
        "coding": [ {
          "system": "http://snomed.info/sct",
          "code": "373066001"
        } ]
      },
      "component": [ {
        "code": {
          "coding": [ {
            "system": "http://loinc.org",
            "code": "82752-7",
            "display": "Date travel started"
          } ],
          "text": "Travel start date"
        },
        "valueDateTime": "2020-03-23"
      }, {
        "code": {
          "coding": [ {
            "system": "http://loinc.org",
            "code": "91560-3",
            "display": "Date of departure from travel destination"
          } ],
          "text": "Travel end date"
        },
        "valueDateTime": "2020-06-01"
      }, {
        "code": {
          "coding": [ {
            "system": "http://loinc.org",
            "code": "94651-7",
            "display": "Country of travel"
          } ],
          "text": "Country of travel"
        },
        "valueCodeableConcept": {
          "coding": [ {
            "system": "urn:iso:std:iso:3166",
            "code": "HT",
            "display": "Haiti"
          } ],
          "text": "Haiti"
        }
      } ]
    },
    "request": {
      "method": "POST",
      "url": "Observation",
      "ifNoneExist": "identifier=https://mein.krankenhaus.de/fhir/NamingSystem/observationId|c17f1d4595c574b362a056aea65332fa1a3b5b4f75f943978238792bbd977102"
    }
  }, {
    "fullUrl": "Observation/1fd4892e2db34efa0b95916967168e313a70a4b860a8aaa6c897e2f88c651d78",
    "resource": {
      "resourceType": "Observation",
      "meta": {
        "profile": [ "https://www.netzwerk-universitaetsmedizin.de/fhir/StructureDefinition/history-of-travel" ]
      },
      "identifier": [ {
        "type": {
          "coding": [ {
            "system": "http://terminology.hl7.org/CodeSystem/v2-0203",
            "code": "OBI",
            "display": "Observation Instance Identifier"
          } ]
        },
        "system": "https://mein.krankenhaus.de/fhir/NamingSystem/observationId",
        "value": "d6527c39f1506875d5f06d6979e1e5dd762b87802ff9865cee4740539c61136e",
        "assigner": {
          "reference": "Organization/3a4f3433bce81181bad2d8e0b8fafccf7dc800bc06f29be73dcb38b750a48f9a"
        }
      } ],
      "status": "final",
      "category": [ {
        "coding": [ {
          "system": "http://terminology.hl7.org/CodeSystem/observation-category",
          "code": "social-history",
          "display": "Social History"
        } ]
      } ],
      "code": {
        "coding": [ {
          "system": "http://loinc.org",
          "code": "8691-8"
        }, {
          "system": "http://snomed.info/sct",
          "code": "443846001"
        } ],
        "text": "History of Travel"
      },
      "subject": {
        "reference": "Patient/f50acce6bcc9db07b0d0720850badecf8b24efbca4debf78f5ac8213635d5cc7"
      },
      "encounter": {
        "reference": "Encounter/bf74a0c7e9c8d81b6c5282c278d15a140052250d1179784429bd420ab70f9f16"
      },
      "_effectiveDateTime": {
        "extension": [ {
          "url": "http://hl7.org/fhir/StructureDefinition/data-absent-reason",
          "valueCode": "unknown"
        } ]
      },
      "valueCodeableConcept": {
        "coding": [ {
          "system": "http://snomed.info/sct",
          "code": "373066001"
        } ]
      },
      "component": [ {
        "code": {
          "coding": [ {
            "system": "http://loinc.org",
            "code": "82752-7",
            "display": "Date travel started"
          } ],
          "text": "Travel start date"
        },
        "valueDateTime": "2020-11-25"
      }, {
        "code": {
          "coding": [ {
            "system": "http://loinc.org",
            "code": "91560-3",
            "display": "Date of departure from travel destination"
          } ],
          "text": "Travel end date"
        },
        "valueDateTime": "2020-01-15"
      }, {
        "code": {
          "coding": [ {
            "system": "http://loinc.org",
            "code": "94651-7",
            "display": "Country of travel"
          } ],
          "text": "Country of travel"
        },
        "valueCodeableConcept": {
          "coding": [ {
            "system": "urn:iso:std:iso:3166",
            "code": "IE",
            "display": "Ireland"
          } ],
          "text": "Ireland"
        }
      } ]
    },
    "request": {
      "method": "POST",
      "url": "Observation",
      "ifNoneExist": "identifier=https://mein.krankenhaus.de/fhir/NamingSystem/observationId|1fd4892e2db34efa0b95916967168e313a70a4b860a8aaa6c897e2f88c651d78"
    }
  }, {
    "fullUrl": "Observation/729f66929bef2da9ef423bc268bf70c1abc0a25a47466776f1cbfcba995b4eeb",
    "resource": {
      "resourceType": "Observation",
      "meta": {
        "profile": [ "https://www.netzwerk-universitaetsmedizin.de/fhir/StructureDefinition/history-of-travel" ]
      },
      "identifier": [ {
        "type": {
          "coding": [ {
            "system": "http://terminology.hl7.org/CodeSystem/v2-0203",
            "code": "OBI",
            "display": "Observation Instance Identifier"
          } ]
        },
        "system": "https://mein.krankenhaus.de/fhir/NamingSystem/observationId",
        "value": "43ee3a6796298b5d9cb4748b3e453f57d52f09a83af6975b09301df7fecdc669",
        "assigner": {
          "reference": "Organization/3a4f3433bce81181bad2d8e0b8fafccf7dc800bc06f29be73dcb38b750a48f9a"
        }
      } ],
      "status": "final",
      "category": [ {
        "coding": [ {
          "system": "http://terminology.hl7.org/CodeSystem/observation-category",
          "code": "social-history",
          "display": "Social History"
        } ]
      } ],
      "code": {
        "coding": [ {
          "system": "http://loinc.org",
          "code": "8691-8"
        }, {
          "system": "http://snomed.info/sct",
          "code": "443846001"
        } ],
        "text": "History of Travel"
      },
      "subject": {
        "reference": "Patient/f50acce6bcc9db07b0d0720850badecf8b24efbca4debf78f5ac8213635d5cc7"
      },
      "encounter": {
        "reference": "Encounter/bf74a0c7e9c8d81b6c5282c278d15a140052250d1179784429bd420ab70f9f16"
      },
      "_effectiveDateTime": {
        "extension": [ {
          "url": "http://hl7.org/fhir/StructureDefinition/data-absent-reason",
          "valueCode": "unknown"
        } ]
      },
      "valueCodeableConcept": {
        "coding": [ {
          "system": "http://snomed.info/sct",
          "code": "373066001"
        } ]
      },
      "component": [ {
        "code": {
          "coding": [ {
            "system": "http://loinc.org",
            "code": "82752-7",
            "display": "Date travel started"
          } ],
          "text": "Travel start date"
        },
        "valueDateTime": "2020-05-17"
      }, {
        "code": {
          "coding": [ {
            "system": "http://loinc.org",
            "code": "91560-3",
            "display": "Date of departure from travel destination"
          } ],
          "text": "Travel end date"
        },
        "valueDateTime": "2020-02-06"
      }, {
        "code": {
          "coding": [ {
            "system": "http://loinc.org",
            "code": "94651-7",
            "display": "Country of travel"
          } ],
          "text": "Country of travel"
        },
        "valueCodeableConcept": {
          "coding": [ {
            "system": "urn:iso:std:iso:3166",
            "code": "BN",
            "display": "Brunei"
          } ],
          "text": "Brunei"
        }
      } ]
    },
    "request": {
      "method": "POST",
      "url": "Observation",
      "ifNoneExist": "identifier=https://mein.krankenhaus.de/fhir/NamingSystem/observationId|729f66929bef2da9ef423bc268bf70c1abc0a25a47466776f1cbfcba995b4eeb"
    }
  }, {
    "fullUrl": "Procedure/b02504024cb3ccd954a1000d809a6666d60f23a3d110e9d137f3e0485c913cf7",
    "resource": {
      "resourceType": "Procedure",
      "meta": {
        "profile": [ "https://www.netzwerk-universitaetsmedizin.de/fhir/StructureDefinition/respiratory-therapies" ]
      },
      "identifier": [ {
        "system": "https://mein.krankenhaus.de/fhir/NamingSystem/procedureId",
        "value": "136f2abe9612fa36b70c6ffa8f33c628e2f22d45a4114250e1bf1f8a329a4425"
      } ],
      "status": "not-done",
      "category": {
        "coding": [ {
          "system": "http://snomed.info/sct",
          "code": "277132007",
          "display": "Therapeutic procedure (procedure)"
        } ]
      },
      "code": {
        "coding": [ {
          "system": "http://snomed.info/sct",
          "code": "53950000"
        } ]
      },
      "subject": {
        "reference": "Patient/f50acce6bcc9db07b0d0720850badecf8b24efbca4debf78f5ac8213635d5cc7"
      },
      "encounter": {
        "reference": "Encounter/bf74a0c7e9c8d81b6c5282c278d15a140052250d1179784429bd420ab70f9f16"
      },
      "_performedDateTime": {
        "extension": [ {
          "url": "http://hl7.org/fhir/StructureDefinition/data-absent-reason",
          "valueCode": "unknown"
        } ]
      }
    },
    "request": {
      "method": "POST",
      "url": "Procedure",
      "ifNoneExist": "identifier=https://mein.krankenhaus.de/fhir/NamingSystem/procedureId|b02504024cb3ccd954a1000d809a6666d60f23a3d110e9d137f3e0485c913cf7"
    }
  }, {
    "fullUrl": "Immunization/08cc6f615621c14635f4e22d0bce20295ec48500fd91af7e37582e1e3baf9b8c",
    "resource": {
      "resourceType": "Immunization",
      "meta": {
        "profile": [ "https://www.netzwerk-universitaetsmedizin.de/fhir/StructureDefinition/immunization" ]
      },
      "identifier": [ {
        "system": "https://mein.krankenhaus.de/fhir/NamingSystem/immunizationId",
        "value": "1f52ff97d8b1349235f4be9f3dcf45e4bb5c042b5fe56c7a8e738e09f1b4a82a"
      } ],
      "status": "completed",
      "vaccineCode": {
        "coding": [ {
          "system": "http://snomed.info/sct",
          "code": "836398006"
        } ]
      },
      "patient": {
        "reference": "Patient/f50acce6bcc9db07b0d0720850badecf8b24efbca4debf78f5ac8213635d5cc7"
      },
      "encounter": {
        "reference": "Encounter/bf74a0c7e9c8d81b6c5282c278d15a140052250d1179784429bd420ab70f9f16"
      },
      "occurrenceDateTime": "2020-12-24",
      "protocolApplied": [ {
        "targetDisease": [ {
          "coding": [ {
            "system": "http://snomed.info/sct",
            "code": "16814004"
          } ]
        } ],
        "_doseNumberString": {
          "extension": [ {
            "url": "http://hl7.org/fhir/StructureDefinition/data-absent-reason",
            "valueCode": "unknown"
          } ]
        }
      } ]
    },
    "request": {
      "method": "POST",
      "url": "Immunization",
      "ifNoneExist": "identifier=https://mein.krankenhaus.de/fhir/NamingSystem/immunizationId|08cc6f615621c14635f4e22d0bce20295ec48500fd91af7e37582e1e3baf9b8c"
    }
  }, {
    "fullUrl": "Immunization/fda3d84f103a9564298a7a77e5c9fcdaeacae8623da9249b50ba0ca846b08b6f",
    "resource": {
      "resourceType": "Immunization",
      "meta": {
        "profile": [ "https://www.netzwerk-universitaetsmedizin.de/fhir/StructureDefinition/immunization" ]
      },
      "identifier": [ {
        "system": "https://mein.krankenhaus.de/fhir/NamingSystem/immunizationId",
        "value": "2cacfb320759b8eac66bc6fb9eb93698d705cdf064ff9d3f43c707c71b9952f4"
      } ],
      "status": "not-done",
      "vaccineCode": {
        "coding": [ {
          "system": "http://snomed.info/sct",
          "code": "1119349007"
        } ]
      },
      "patient": {
        "reference": "Patient/f50acce6bcc9db07b0d0720850badecf8b24efbca4debf78f5ac8213635d5cc7"
      },
      "encounter": {
        "reference": "Encounter/bf74a0c7e9c8d81b6c5282c278d15a140052250d1179784429bd420ab70f9f16"
      },
      "_occurrenceDateTime": {
        "extension": [ {
          "url": "http://hl7.org/fhir/StructureDefinition/data-absent-reason",
          "valueCode": "unknown"
        } ]
      },
      "protocolApplied": [ {
        "targetDisease": [ {
          "coding": [ {
            "system": "http://snomed.info/sct",
            "code": "840539006"
          } ]
        } ],
        "_doseNumberString": {
          "extension": [ {
            "url": "http://hl7.org/fhir/StructureDefinition/data-absent-reason",
            "valueCode": "unknown"
          } ]
        }
      } ]
    },
    "request": {
      "method": "POST",
      "url": "Immunization",
      "ifNoneExist": "identifier=https://mein.krankenhaus.de/fhir/NamingSystem/immunizationId|fda3d84f103a9564298a7a77e5c9fcdaeacae8623da9249b50ba0ca846b08b6f"
    }
  }, {
    "fullUrl": "Consent/6034ad2fee64b3b465c5129ab530751b24821ab54b79ea8566916bcb95183eea",
    "resource": {
      "resourceType": "Consent",
      "meta": {
        "profile": [ "https://www.netzwerk-universitaetsmedizin.de/fhir/StructureDefinition/do-not-resuscitate-order" ]
      },
      "identifier": [ {
        "system": "https://mein.krankenhaus.de/fhir/NamingSystem/consentId",
        "value": "27839037ab7659370fef19040cab19218c5a9444d431ac9bddb41036dae4932e"
      } ],
      "status": "active",
      "scope": {
        "coding": [ {
          "system": "http://terminology.hl7.org/CodeSystem/consentscope",
          "code": "adr",
          "display": "Advanced Care Directive"
        } ]
      },
      "category": [ {
        "coding": [ {
          "system": "http://terminology.hl7.org/CodeSystem/consentcategorycodes",
          "code": "dnr",
          "display": "Do Not Resuscitate"
        } ]
      } ],
      "patient": {
        "reference": "Patient/f50acce6bcc9db07b0d0720850badecf8b24efbca4debf78f5ac8213635d5cc7"
      },
      "policy": [ {
        "uri": "https://www.aerzteblatt.de/archiv/65440/DNR-Anordnungen-Das-fehlende-Bindeglied"
      } ],
      "provision": {
        "code": [ {
          "coding": [ {
            "system": "http://snomed.info/sct",
            "code": "261665006"
          } ]
        } ]
      }
    },
    "request": {
      "method": "POST",
      "url": "Consent",
      "ifNoneExist": "identifier=https://mein.krankenhaus.de/fhir/NamingSystem/consentId|6034ad2fee64b3b465c5129ab530751b24821ab54b79ea8566916bcb95183eea"
    }
  }, {
    "fullUrl": "Observation/19a10d8aa47f2f7aeef4a8f4547856df8842a3e4c033231bbcc406af16928d91",
    "resource": {
      "resourceType": "Observation",
      "meta": {
        "profile": [ "https://www.netzwerk-universitaetsmedizin.de/fhir/StructureDefinition/sex-assigned-at-birth" ]
      },
      "identifier": [ {
        "system": "https://mein.krankenhaus.de/fhir/NamingSystem/observationId",
        "value": "68b82cb8aa17ac47b467f2db5099bde22b29cee32d24538b9f2d295be4e6d1d4"
      } ],
      "status": "final",
      "category": [ {
        "coding": [ {
          "system": "http://terminology.hl7.org/CodeSystem/observation-category",
          "code": "social-history",
          "display": "Social History"
        } ]
      } ],
      "code": {
        "coding": [ {
          "system": "http://loinc.org",
          "code": "76689-9"
        } ]
      },
      "subject": {
        "reference": "Patient/f50acce6bcc9db07b0d0720850badecf8b24efbca4debf78f5ac8213635d5cc7"
      },
      "encounter": {
        "reference": "Encounter/bf74a0c7e9c8d81b6c5282c278d15a140052250d1179784429bd420ab70f9f16"
      },
      "_effectiveDateTime": {
        "extension": [ {
          "url": "http://hl7.org/fhir/StructureDefinition/data-absent-reason",
          "valueCode": "unknown"
        } ]
      },
      "valueCodeableConcept": {
        "coding": [ {
          "system": "http://fhir.de/CodeSystem/gender-amtlich-de",
          "code": "D"
        } ]
      }
    },
    "request": {
      "method": "POST",
      "url": "Observation",
      "ifNoneExist": "identifier=https://mein.krankenhaus.de/fhir/NamingSystem/observationId|19a10d8aa47f2f7aeef4a8f4547856df8842a3e4c033231bbcc406af16928d91"
    }
  }, {
    "fullUrl": "Observation/792938303b449ab0ff38cc9144921d2791d26ac36eea95527753939b95a6b958",
    "resource": {
      "resourceType": "Observation",
      "meta": {
        "profile": [ "https://www.netzwerk-universitaetsmedizin.de/fhir/StructureDefinition/frailty-score" ]
      },
      "identifier": [ {
        "type": {
          "coding": [ {
            "system": "http://terminology.hl7.org/CodeSystem/v2-0203",
            "code": "OBI",
            "display": "Observation Instance Identifier"
          } ]
        },
        "system": "https://mein.krankenhaus.de/fhir/NamingSystem/observationId",
        "value": "c2bc7dbe2dd404558d59e271630e4fb4c324b590b9686551d5dc862321447c39",
        "assigner": {
          "reference": "Organization/3a4f3433bce81181bad2d8e0b8fafccf7dc800bc06f29be73dcb38b750a48f9a"
        }
      } ],
      "status": "final",
      "category": [ {
        "coding": [ {
          "system": "http://terminology.hl7.org/CodeSystem/observation-category",
          "code": "survey",
          "display": "Survey"
        } ]
      } ],
      "code": {
        "coding": [ {
          "system": "http://snomed.info/sct",
          "code": "763264000"
        } ],
        "text": "Frailty Scale Score"
      },
      "subject": {
        "reference": "Patient/f50acce6bcc9db07b0d0720850badecf8b24efbca4debf78f5ac8213635d5cc7"
      },
      "encounter": {
        "reference": "Encounter/bf74a0c7e9c8d81b6c5282c278d15a140052250d1179784429bd420ab70f9f16"
      },
      "_effectiveDateTime": {
        "extension": [ {
          "url": "http://hl7.org/fhir/StructureDefinition/data-absent-reason",
          "valueCode": "unknown"
        } ]
      },
      "valueCodeableConcept": {
        "coding": [ {
          "system": "https://www.netzwerk-universitaetsmedizin.de/fhir/CodeSystem/frailty-score",
          "code": "2"
        } ]
      },
      "method": {
        "coding": [ {
          "system": "http://snomed.info/sct",
          "code": "445414007",
          "display": "Canadian Study of Health and Aging clinical frailty scale"
        } ]
      }
    },
    "request": {
      "method": "POST",
      "url": "Observation",
      "ifNoneExist": "identifier=https://mein.krankenhaus.de/fhir/NamingSystem/observationId|792938303b449ab0ff38cc9144921d2791d26ac36eea95527753939b95a6b958"
    }
  }, {
    "fullUrl": "Observation/924a7673e8e4fc99f312ef1dbcee67c5009a67611deb46e711982ec1803979be",
    "resource": {
      "resourceType": "Observation",
      "meta": {
        "profile": [ "https://www.netzwerk-universitaetsmedizin.de/fhir/StructureDefinition/body-weight" ]
      },
      "identifier": [ {
        "type": {
          "coding": [ {
            "system": "http://terminology.hl7.org/CodeSystem/v2-0203",
            "code": "OBI",
            "display": "Observation Instance Identifier"
          } ]
        },
        "system": "https://mein.krankenhaus.de/fhir/NamingSystem/observationId",
        "value": "26ade29a4a18ec4ff953dee965eac39dd2b606521b42ff2c7bd6bfae62c38743",
        "assigner": {
          "reference": "Organization/3a4f3433bce81181bad2d8e0b8fafccf7dc800bc06f29be73dcb38b750a48f9a"
        }
      } ],
      "status": "final",
      "category": [ {
        "coding": [ {
          "system": "http://terminology.hl7.org/CodeSystem/observation-category",
          "code": "vital-signs",
          "display": "Vital Signs"
        } ]
      } ],
      "code": {
        "coding": [ {
          "system": "http://loinc.org",
          "code": "29463-7"
        }, {
          "system": "http://snomed.info/sct",
          "code": "27113001"
        } ],
        "text": "Body Weight"
      },
      "subject": {
        "reference": "Patient/f50acce6bcc9db07b0d0720850badecf8b24efbca4debf78f5ac8213635d5cc7"
      },
      "encounter": {
        "reference": "Encounter/bf74a0c7e9c8d81b6c5282c278d15a140052250d1179784429bd420ab70f9f16"
      },
      "_effectiveDateTime": {
        "extension": [ {
          "url": "http://hl7.org/fhir/StructureDefinition/data-absent-reason",
          "valueCode": "unknown"
        } ]
      },
      "valueQuantity": {
        "value": 147,
        "unit": "kilogram",
        "system": "http://unitsofmeasure.org",
        "code": "kg"
      }
    },
    "request": {
      "method": "POST",
      "url": "Observation",
      "ifNoneExist": "identifier=https://mein.krankenhaus.de/fhir/NamingSystem/observationId|924a7673e8e4fc99f312ef1dbcee67c5009a67611deb46e711982ec1803979be"
    }
  }, {
    "fullUrl": "Observation/9427b20607969886beb6f19ccb30fcf35f2106411315aa46042c0540aaa5c837",
    "resource": {
      "resourceType": "Observation",
      "meta": {
        "profile": [ "https://www.netzwerk-universitaetsmedizin.de/fhir/StructureDefinition/body-height" ]
      },
      "identifier": [ {
        "type": {
          "coding": [ {
            "system": "http://terminology.hl7.org/CodeSystem/v2-0203",
            "code": "OBI",
            "display": "Observation Instance Identifier"
          } ]
        },
        "system": "https://mein.krankenhaus.de/fhir/NamingSystem/observationId",
        "value": "68deb40ebe3c148e0125a7ac890c38686cc5494e4802395f1fd62287e9877c3c",
        "assigner": {
          "reference": "Organization/3a4f3433bce81181bad2d8e0b8fafccf7dc800bc06f29be73dcb38b750a48f9a"
        }
      } ],
      "status": "final",
      "category": [ {
        "coding": [ {
          "system": "http://terminology.hl7.org/CodeSystem/observation-category",
          "code": "vital-signs",
          "display": "Vital Signs"
        } ]
      } ],
      "code": {
        "coding": [ {
          "system": "http://loinc.org",
          "code": "8302-2"
        }, {
          "system": "http://snomed.info/sct",
          "code": "50373000"
        } ],
        "text": "Body height"
      },
      "subject": {
        "reference": "Patient/f50acce6bcc9db07b0d0720850badecf8b24efbca4debf78f5ac8213635d5cc7"
      },
      "encounter": {
        "reference": "Encounter/bf74a0c7e9c8d81b6c5282c278d15a140052250d1179784429bd420ab70f9f16"
      },
      "_effectiveDateTime": {
        "extension": [ {
          "url": "http://hl7.org/fhir/StructureDefinition/data-absent-reason",
          "valueCode": "unknown"
        } ]
      },
      "valueQuantity": {
        "value": 23,
        "unit": "centimeter",
        "system": "http://unitsofmeasure.org",
        "code": "cm"
      }
    },
    "request": {
      "method": "POST",
      "url": "Observation",
      "ifNoneExist": "identifier=https://mein.krankenhaus.de/fhir/NamingSystem/observationId|9427b20607969886beb6f19ccb30fcf35f2106411315aa46042c0540aaa5c837"
    }
  }, {
    "fullUrl": "Observation/f736030217fe3002fbaed9688d35755de816d8786a1830dfdf96ed9049a7eabe",
    "resource": {
      "resourceType": "Observation",
      "meta": {
        "profile": [ "https://www.netzwerk-universitaetsmedizin.de/fhir/StructureDefinition/known-exposure" ]
      },
      "identifier": [ {
        "type": {
          "coding": [ {
            "system": "http://terminology.hl7.org/CodeSystem/v2-0203",
            "code": "OBI",
            "display": "Observation Instance Identifier"
          } ]
        },
        "system": "https://mein.krankenhaus.de/fhir/NamingSystem/observationId",
        "value": "7a898494178c13653395ed8488a382c30c0b0a38808f0182db9d3d54c4174879",
        "assigner": {
          "reference": "Organization/3a4f3433bce81181bad2d8e0b8fafccf7dc800bc06f29be73dcb38b750a48f9a"
        }
      } ],
      "status": "final",
      "category": [ {
        "coding": [ {
          "system": "http://terminology.hl7.org/CodeSystem/observation-category",
          "code": "social-history",
          "display": "Social History"
        } ]
      } ],
      "code": {
        "coding": [ {
          "system": "http://loinc.org",
          "code": "88636-6"
        } ],
        "text": "Known exposure"
      },
      "subject": {
        "reference": "Patient/f50acce6bcc9db07b0d0720850badecf8b24efbca4debf78f5ac8213635d5cc7"
      },
      "encounter": {
        "reference": "Encounter/bf74a0c7e9c8d81b6c5282c278d15a140052250d1179784429bd420ab70f9f16"
      },
      "_effectiveDateTime": {
        "extension": [ {
          "url": "http://hl7.org/fhir/StructureDefinition/data-absent-reason",
          "valueCode": "unknown"
        } ]
      },
      "valueCodeableConcept": {
        "coding": [ {
          "system": "http://snomed.info/sct",
          "code": "840546002"
        } ]
      }
    },
    "request": {
      "method": "POST",
      "url": "Observation",
      "ifNoneExist": "identifier=https://mein.krankenhaus.de/fhir/NamingSystem/observationId|f736030217fe3002fbaed9688d35755de816d8786a1830dfdf96ed9049a7eabe"
    }
  }, {
    "fullUrl": "Procedure/249d9728405f0be5b03a142a7d2c5480f28547d379a25bcb2d9d764950a10835",
    "resource": {
      "resourceType": "Procedure",
      "meta": {
        "profile": [ "https://www.netzwerk-universitaetsmedizin.de/fhir/StructureDefinition/dialysis" ]
      },
      "identifier": [ {
        "system": "https://mein.krankenhaus.de/fhir/NamingSystem/procedureId",
        "value": "9f7d49774bac93f85f19642d2c5b905df0c100baa38cdda41b6f6a57cb1ef6e0"
      } ],
      "status": "in-progress",
      "category": {
        "coding": [ {
          "system": "http://snomed.info/sct",
          "code": "277132007",
          "display": "Therapeutic procedure (procedure)"
        } ]
      },
      "code": {
        "coding": [ {
          "system": "http://snomed.info/sct",
          "code": "108241001"
        } ],
        "text": "Dialysis"
      },
      "subject": {
        "reference": "Patient/f50acce6bcc9db07b0d0720850badecf8b24efbca4debf78f5ac8213635d5cc7"
      },
      "encounter": {
        "reference": "Encounter/bf74a0c7e9c8d81b6c5282c278d15a140052250d1179784429bd420ab70f9f16"
      },
      "_performedDateTime": {
        "extension": [ {
          "url": "http://hl7.org/fhir/StructureDefinition/data-absent-reason",
          "valueCode": "unknown"
        } ]
      }
    },
    "request": {
      "method": "POST",
      "url": "Procedure",
      "ifNoneExist": "identifier=https://mein.krankenhaus.de/fhir/NamingSystem/procedureId|249d9728405f0be5b03a142a7d2c5480f28547d379a25bcb2d9d764950a10835"
    }
  }, {
    "fullUrl": "Procedure/544215fdac24ebfc77d7035f645399fec1ec5a7702efd6ef3f1e327ba3f9fc3c",
    "resource": {
      "resourceType": "Procedure",
      "meta": {
        "profile": [ "https://www.netzwerk-universitaetsmedizin.de/fhir/StructureDefinition/apheresis" ]
      },
      "identifier": [ {
        "system": "https://mein.krankenhaus.de/fhir/NamingSystem/procedureId",
        "value": "2df6e738420ebd79c6546b7b36f1d263bfcec2f0466dbd3af696d4bca0db1a91"
      } ],
      "status": "unknown",
      "category": {
        "coding": [ {
          "system": "http://snomed.info/sct",
          "code": "277132007",
          "display": "Therapeutic procedure (procedure)"
        } ]
      },
      "code": {
        "coding": [ {
          "system": "http://snomed.info/sct",
          "code": "127788007"
        } ],
        "text": "Apheresis"
      },
      "subject": {
        "reference": "Patient/f50acce6bcc9db07b0d0720850badecf8b24efbca4debf78f5ac8213635d5cc7"
      },
      "encounter": {
        "reference": "Encounter/bf74a0c7e9c8d81b6c5282c278d15a140052250d1179784429bd420ab70f9f16"
      },
      "_performedDateTime": {
        "extension": [ {
          "url": "http://hl7.org/fhir/StructureDefinition/data-absent-reason",
          "valueCode": "unknown"
        } ]
      }
    },
    "request": {
      "method": "POST",
      "url": "Procedure",
      "ifNoneExist": "identifier=https://mein.krankenhaus.de/fhir/NamingSystem/procedureId|544215fdac24ebfc77d7035f645399fec1ec5a7702efd6ef3f1e327ba3f9fc3c"
    }
  }, {
    "fullUrl": "Procedure/3c0571b0d06c01ed9e86f8e11852cfcd670239cf102e1ded15834fad2cbd01b3",
    "resource": {
      "resourceType": "Procedure",
      "meta": {
        "profile": [ "https://www.netzwerk-universitaetsmedizin.de/fhir/StructureDefinition/respiratory-therapies" ]
      },
      "identifier": [ {
        "system": "https://mein.krankenhaus.de/fhir/NamingSystem/procedureId",
        "value": "032b0057f537f9f6b7512cceefb8d12af5892f5db47e1682280f1ba7557a8a47"
      } ],
      "status": "not-done",
      "category": {
        "coding": [ {
          "system": "http://snomed.info/sct",
          "code": "277132007",
          "display": "Therapeutic procedure (procedure)"
        } ]
      },
      "code": {
        "coding": [ {
          "system": "http://snomed.info/sct",
          "code": "40617009",
          "display": "Artificial respiration (procedure)"
        } ]
      },
      "subject": {
        "reference": "Patient/f50acce6bcc9db07b0d0720850badecf8b24efbca4debf78f5ac8213635d5cc7"
      },
      "encounter": {
        "reference": "Encounter/bf74a0c7e9c8d81b6c5282c278d15a140052250d1179784429bd420ab70f9f16"
      },
      "_performedDateTime": {
        "extension": [ {
          "url": "http://hl7.org/fhir/StructureDefinition/data-absent-reason",
          "valueCode": "unknown"
        } ]
      }
    },
    "request": {
      "method": "POST",
      "url": "Procedure",
      "ifNoneExist": "identifier=https://mein.krankenhaus.de/fhir/NamingSystem/procedureId|3c0571b0d06c01ed9e86f8e11852cfcd670239cf102e1ded15834fad2cbd01b3"
    }
  }, {
    "fullUrl": "Observation/ddd1726b276c279ccf719a4ac44ae0de2884b3e22fef33fba0b62134b128f36a",
    "resource": {
      "resourceType": "Observation",
      "meta": {
        "profile": [ "https://www.netzwerk-universitaetsmedizin.de/fhir/StructureDefinition/patient-in-icu" ]
      },
      "identifier": [ {
        "system": "https://mein.krankenhaus.de/fhir/NamingSystem/observationId",
        "value": "2195b8a1d39d7abaf2037387f25c2c6fd6d2549da8084700a8a1ad4ba569f5d3"
      } ],
      "status": "final",
      "category": [ {
        "coding": [ {
          "system": "http://terminology.hl7.org/CodeSystem/observation-category",
          "code": "survey",
          "display": "Survey"
        } ]
      } ],
      "code": {
        "coding": [ {
          "system": "https://www.netzwerk-universitaetsmedizin.de/fhir/CodeSystem/ecrf-parameter-codes",
          "code": "01",
          "display": "Is the patient in the intensive care unit?"
        } ]
      },
      "subject": {
        "reference": "Patient/f50acce6bcc9db07b0d0720850badecf8b24efbca4debf78f5ac8213635d5cc7"
      },
      "encounter": {
        "reference": "Encounter/bf74a0c7e9c8d81b6c5282c278d15a140052250d1179784429bd420ab70f9f16"
      },
      "_effectiveDateTime": {
        "extension": [ {
          "url": "http://hl7.org/fhir/StructureDefinition/data-absent-reason",
          "valueCode": "unknown"
        } ]
      },
      "valueCodeableConcept": {
        "coding": [ {
          "system": "http://snomed.info/sct",
          "code": "261665006"
        } ]
      }
    },
    "request": {
      "method": "POST",
      "url": "Observation",
      "ifNoneExist": "identifier=https://mein.krankenhaus.de/fhir/NamingSystem/observationId|ddd1726b276c279ccf719a4ac44ae0de2884b3e22fef33fba0b62134b128f36a"
    }
  }, {
    "fullUrl": "Condition/48eea45abaff7b8dff8867946a3ca717229c313449484d58520f416a99e8dce6",
    "resource": {
      "resourceType": "Condition",
      "meta": {
        "profile": [ "https://www.netzwerk-universitaetsmedizin.de/fhir/StructureDefinition/dependence-on-ventilator" ]
      },
      "identifier": [ {
        "system": "https://mein.krankenhaus.de/fhir/NamingSystem/conditionId",
        "value": "46f309dfde4353fad346279e203e003ec4c16690642402c9741887a8b46ec5cd"
      } ],
      "clinicalStatus": {
        "coding": [ {
          "system": "http://terminology.hl7.org/CodeSystem/condition-clinical",
          "code": "active",
          "display": "Active"
        } ]
      },
      "verificationStatus": {
        "coding": [ {
          "system": "http://terminology.hl7.org/CodeSystem/condition-ver-status",
          "code": "confirmed",
          "display": "Confirmed"
        }, {
          "system": "http://snomed.info/sct",
          "code": "410605003",
          "display": "Confirmed present (qualifier value)"
        } ]
      },
      "category": [ {
        "coding": [ {
          "system": "http://snomed.info/sct",
          "code": "404989005",
          "display": "Ventilation status (observable entity)"
        } ]
      } ],
      "code": {
        "coding": [ {
          "system": "http://snomed.info/sct",
          "code": "444932008"
        } ]
      },
      "subject": {
        "reference": "Patient/f50acce6bcc9db07b0d0720850badecf8b24efbca4debf78f5ac8213635d5cc7"
      },
      "encounter": {
        "reference": "Encounter/bf74a0c7e9c8d81b6c5282c278d15a140052250d1179784429bd420ab70f9f16"
      },
      "_recordedDate": {
        "extension": [ {
          "url": "http://hl7.org/fhir/StructureDefinition/data-absent-reason",
          "valueCode": "unknown"
        } ]
      }
    },
    "request": {
      "method": "POST",
      "url": "Condition",
      "ifNoneExist": "identifier=https://mein.krankenhaus.de/fhir/NamingSystem/conditionId|48eea45abaff7b8dff8867946a3ca717229c313449484d58520f416a99e8dce6"
    }
  }, {
    "fullUrl": "Observation/90c7f5415a04ce2976d924bb68881edbe0eeb16bbeb6a7aff30d264136114e5c",
    "resource": {
      "resourceType": "Observation",
      "meta": {
        "profile": [ "https://www.netzwerk-universitaetsmedizin.de/fhir/StructureDefinition/discharge-disposition" ]
      },
      "identifier": [ {
        "type": {
          "coding": [ {
            "system": "http://terminology.hl7.org/CodeSystem/v2-0203",
            "code": "OBI",
            "display": "Observation Instance Identifier"
          } ]
        },
        "system": "https://mein.krankenhaus.de/fhir/NamingSystem/observationId",
        "value": "bbdde281f8a04466cb4a5f88bcb20d6d59636f757d2f035f201189802a915b6b",
        "assigner": {
          "reference": "Organization/3a4f3433bce81181bad2d8e0b8fafccf7dc800bc06f29be73dcb38b750a48f9a"
        }
      } ],
      "status": "final",
      "category": [ {
        "coding": [ {
          "system": "http://terminology.hl7.org/CodeSystem/observation-category",
          "code": "social-history",
          "display": "Social History"
        } ]
      } ],
      "code": {
        "coding": [ {
          "system": "http://loinc.org",
          "code": "55128-3"
        } ],
        "text": "type of Discharge"
      },
      "subject": {
        "reference": "Patient/f50acce6bcc9db07b0d0720850badecf8b24efbca4debf78f5ac8213635d5cc7"
      },
      "encounter": {
        "reference": "Encounter/bf74a0c7e9c8d81b6c5282c278d15a140052250d1179784429bd420ab70f9f16"
      },
      "_effectiveDateTime": {
        "extension": [ {
          "url": "http://hl7.org/fhir/StructureDefinition/data-absent-reason",
          "valueCode": "unknown"
        } ]
      },
      "valueCodeableConcept": {
        "coding": [ {
          "system": "http://snomed.info/sct",
          "code": "306237005"
        } ]
      }
    },
    "request": {
      "method": "POST",
      "url": "Observation",
      "ifNoneExist": "identifier=https://mein.krankenhaus.de/fhir/NamingSystem/observationId|90c7f5415a04ce2976d924bb68881edbe0eeb16bbeb6a7aff30d264136114e5c"
    }
  }, {
    "fullUrl": "Observation/73cd9ef65a49cbd8372e2cc22d8cb4c53418f0842e79f274078c55485946a374",
    "resource": {
      "resourceType": "Observation",
      "meta": {
        "profile": [ "https://www.netzwerk-universitaetsmedizin.de/fhir/StructureDefinition/sars-cov-2-rt-pcr" ]
      },
      "identifier": [ {
        "type": {
          "coding": [ {
            "system": "http://terminology.hl7.org/CodeSystem/v2-0203",
            "code": "OBI",
            "display": "Observation Instance Identifier"
          } ]
        },
        "system": "https://mein.krankenhaus.de/fhir/NamingSystem/observationId",
        "value": "1c8b689cb4fcbbac22e5475364d05acb70ebab3a23fe17154284a59fb4659262",
        "assigner": {
          "reference": "Organization/3a4f3433bce81181bad2d8e0b8fafccf7dc800bc06f29be73dcb38b750a48f9a"
        }
      } ],
      "status": "final",
      "category": [ {
        "coding": [ {
          "system": "http://terminology.hl7.org/CodeSystem/observation-category",
          "code": "laboratory",
          "display": "Laboratory"
        }, {
          "system": "http://loinc.org",
          "code": "26436-6",
          "display": "Laboratory studies (set)"
        } ]
      } ],
      "code": {
        "coding": [ {
          "system": "http://loinc.org",
          "code": "94500-6"
        } ]
      },
      "subject": {
        "reference": "Patient/f50acce6bcc9db07b0d0720850badecf8b24efbca4debf78f5ac8213635d5cc7"
      },
      "encounter": {
        "reference": "Encounter/bf74a0c7e9c8d81b6c5282c278d15a140052250d1179784429bd420ab70f9f16"
      },
      "_effectiveDateTime": {
        "extension": [ {
          "url": "http://hl7.org/fhir/StructureDefinition/data-absent-reason",
          "valueCode": "unknown"
        } ]
      },
      "valueCodeableConcept": {
        "coding": [ {
          "system": "http://snomed.info/sct",
          "code": "260415000"
        } ]
      }
    },
    "request": {
      "method": "POST",
      "url": "Observation",
      "ifNoneExist": "identifier=https://mein.krankenhaus.de/fhir/NamingSystem/observationId|73cd9ef65a49cbd8372e2cc22d8cb4c53418f0842e79f274078c55485946a374"
    }
  }, {
    "fullUrl": "Observation/45522e65128c78f8ebf41211135e2f5265678c9239a9f78669c3a456eeedabc4",
    "resource": {
      "resourceType": "Observation",
      "meta": {
        "profile": [ "https://www.medizininformatik-initiative.de/fhir/core/modul-labor/StructureDefinition/ObservationLab" ]
      },
      "identifier": [ {
        "type": {
          "coding": [ {
            "system": "http://terminology.hl7.org/CodeSystem/v2-0203",
            "code": "OBI",
            "display": "Observation Instance Identifier"
          } ]
        },
        "system": "https://mein.krankenhaus.de/fhir/NamingSystem/observationId",
        "value": "a93b39afebdb0b69581cbe791310ea18de556bc8defc18f035c4df940058b31d",
        "assigner": {
          "reference": "Organization/3a4f3433bce81181bad2d8e0b8fafccf7dc800bc06f29be73dcb38b750a48f9a"
        }
      } ],
      "status": "final",
      "category": [ {
        "coding": [ {
          "system": "http://terminology.hl7.org/CodeSystem/observation-category",
          "code": "laboratory",
          "display": "Laboratory"
        }, {
          "system": "http://loinc.org",
          "code": "26436-6"
        } ]
      } ],
      "code": {
        "coding": [ {
          "system": "http://loinc.org",
          "code": "76486-0",
          "display": "c-reactive-protein-in-serum-or-plasma-by-high-sensitivity-method"
        } ],
        "text": "crp"
      },
      "subject": {
        "reference": "Patient/f50acce6bcc9db07b0d0720850badecf8b24efbca4debf78f5ac8213635d5cc7"
      },
      "encounter": {
        "reference": "Encounter/bf74a0c7e9c8d81b6c5282c278d15a140052250d1179784429bd420ab70f9f16"
      },
      "effectiveDateTime": "2020-09-16T00:36:00+00:00",
      "valueQuantity": {
        "value": 53.2659787469532,
        "unit": "nmol/L",
        "system": "http://unitsofmeasure.org",
        "code": "nmol/L"
      }
    },
    "request": {
      "method": "POST",
      "url": "Observation",
      "ifNoneExist": "identifier=https://mein.krankenhaus.de/fhir/NamingSystem/observationId|45522e65128c78f8ebf41211135e2f5265678c9239a9f78669c3a456eeedabc4"
    }
  }, {
    "fullUrl": "Observation/aeba4ccc826f510e115f12a38c802180c278044b57f7fbfaecf406827ec38825",
    "resource": {
      "resourceType": "Observation",
      "meta": {
        "profile": [ "https://www.medizininformatik-initiative.de/fhir/core/modul-labor/StructureDefinition/ObservationLab" ]
      },
      "identifier": [ {
        "type": {
          "coding": [ {
            "system": "http://terminology.hl7.org/CodeSystem/v2-0203",
            "code": "OBI",
            "display": "Observation Instance Identifier"
          } ]
        },
        "system": "https://mein.krankenhaus.de/fhir/NamingSystem/observationId",
        "value": "5b5b5fb9e0b58b8aec6393d3c31e5f83c3bdca40957bb2b75941fd450d53df85",
        "assigner": {
          "reference": "Organization/3a4f3433bce81181bad2d8e0b8fafccf7dc800bc06f29be73dcb38b750a48f9a"
        }
      } ],
      "status": "final",
      "category": [ {
        "coding": [ {
          "system": "http://terminology.hl7.org/CodeSystem/observation-category",
          "code": "laboratory",
          "display": "Laboratory"
        }, {
          "system": "http://loinc.org",
          "code": "26436-6"
        } ]
      } ],
      "code": {
        "coding": [ {
          "system": "http://loinc.org",
          "code": "24373-3",
          "display": "ferritin-in-blood"
        } ],
        "text": "ferritin"
      },
      "subject": {
        "reference": "Patient/f50acce6bcc9db07b0d0720850badecf8b24efbca4debf78f5ac8213635d5cc7"
      },
      "encounter": {
        "reference": "Encounter/bf74a0c7e9c8d81b6c5282c278d15a140052250d1179784429bd420ab70f9f16"
      },
      "effectiveDateTime": "2020-09-16T00:36:00+00:00",
      "valueQuantity": {
        "value": 51.611646611683945,
        "unit": "ng/mL",
        "system": "http://unitsofmeasure.org",
        "code": "ng/mL"
      }
    },
    "request": {
      "method": "POST",
      "url": "Observation",
      "ifNoneExist": "identifier=https://mein.krankenhaus.de/fhir/NamingSystem/observationId|aeba4ccc826f510e115f12a38c802180c278044b57f7fbfaecf406827ec38825"
    }
  }, {
    "fullUrl": "Observation/22764a40df7a6c96df565893bedcb1d42dc983848c1563f970fa0e1220be53f3",
    "resource": {
      "resourceType": "Observation",
      "meta": {
        "profile": [ "https://www.medizininformatik-initiative.de/fhir/core/modul-labor/StructureDefinition/ObservationLab" ]
      },
      "identifier": [ {
        "type": {
          "coding": [ {
            "system": "http://terminology.hl7.org/CodeSystem/v2-0203",
            "code": "OBI",
            "display": "Observation Instance Identifier"
          } ]
        },
        "system": "https://mein.krankenhaus.de/fhir/NamingSystem/observationId",
        "value": "4e31fce321efc13a412cedb0489e80d4a24f2275ddab72c3580e281551e38bea",
        "assigner": {
          "reference": "Organization/3a4f3433bce81181bad2d8e0b8fafccf7dc800bc06f29be73dcb38b750a48f9a"
        }
      } ],
      "status": "final",
      "category": [ {
        "coding": [ {
          "system": "http://terminology.hl7.org/CodeSystem/observation-category",
          "code": "laboratory",
          "display": "Laboratory"
        }, {
          "system": "http://loinc.org",
          "code": "26436-6"
        } ]
      } ],
      "code": {
        "coding": [ {
          "system": "http://loinc.org",
          "code": "14631-6",
          "display": "bilirubin.total-in-serum-or-plasma"
        } ],
        "text": "bilirubin"
      },
      "subject": {
        "reference": "Patient/f50acce6bcc9db07b0d0720850badecf8b24efbca4debf78f5ac8213635d5cc7"
      },
      "encounter": {
        "reference": "Encounter/bf74a0c7e9c8d81b6c5282c278d15a140052250d1179784429bd420ab70f9f16"
      },
      "effectiveDateTime": "2020-09-16T00:36:00+00:00",
      "valueQuantity": {
        "value": 51.711553179439264,
        "unit": "umol/L",
        "system": "http://unitsofmeasure.org",
        "code": "umol/L"
      }
    },
    "request": {
      "method": "POST",
      "url": "Observation",
      "ifNoneExist": "identifier=https://mein.krankenhaus.de/fhir/NamingSystem/observationId|22764a40df7a6c96df565893bedcb1d42dc983848c1563f970fa0e1220be53f3"
    }
  }, {
    "fullUrl": "Observation/9b426486eb1d02bdaf27cb3ebda7a3a58e95b3cd534a4011877b4d0215f3a601",
    "resource": {
      "resourceType": "Observation",
      "meta": {
        "profile": [ "https://www.medizininformatik-initiative.de/fhir/core/modul-labor/StructureDefinition/ObservationLab" ]
      },
      "identifier": [ {
        "type": {
          "coding": [ {
            "system": "http://terminology.hl7.org/CodeSystem/v2-0203",
            "code": "OBI",
            "display": "Observation Instance Identifier"
          } ]
        },
        "system": "https://mein.krankenhaus.de/fhir/NamingSystem/observationId",
        "value": "78b092dbf1383beadbe89147a386056890e5c65914dc69ba232af8757e283ee4",
        "assigner": {
          "reference": "Organization/3a4f3433bce81181bad2d8e0b8fafccf7dc800bc06f29be73dcb38b750a48f9a"
        }
      } ],
      "status": "final",
      "category": [ {
        "coding": [ {
          "system": "http://terminology.hl7.org/CodeSystem/observation-category",
          "code": "laboratory",
          "display": "Laboratory"
        }, {
          "system": "http://loinc.org",
          "code": "26436-6"
        } ]
      } ],
      "code": {
        "coding": [ {
          "system": "http://loinc.org",
          "code": "48058-2",
          "display": "fibrin-d-dimer-ddu-in-platelet-poor-plasma-by-immunoassay"
        } ],
        "text": "ddimer"
      },
      "subject": {
        "reference": "Patient/f50acce6bcc9db07b0d0720850badecf8b24efbca4debf78f5ac8213635d5cc7"
      },
      "encounter": {
        "reference": "Encounter/bf74a0c7e9c8d81b6c5282c278d15a140052250d1179784429bd420ab70f9f16"
      },
      "effectiveDateTime": "2020-09-16T00:36:00+00:00",
      "valueQuantity": {
        "value": 95.20019328118333,
        "unit": "ug/dL{DDU}",
        "system": "http://unitsofmeasure.org",
        "code": "ug/dL{DDU}"
      }
    },
    "request": {
      "method": "POST",
      "url": "Observation",
      "ifNoneExist": "identifier=https://mein.krankenhaus.de/fhir/NamingSystem/observationId|9b426486eb1d02bdaf27cb3ebda7a3a58e95b3cd534a4011877b4d0215f3a601"
    }
  }, {
    "fullUrl": "Observation/3925dee8519f12161666f9885811027faad3769a0b18cbc262ae601894640871",
    "resource": {
      "resourceType": "Observation",
      "meta": {
        "profile": [ "https://www.medizininformatik-initiative.de/fhir/core/modul-labor/StructureDefinition/ObservationLab" ]
      },
      "identifier": [ {
        "type": {
          "coding": [ {
            "system": "http://terminology.hl7.org/CodeSystem/v2-0203",
            "code": "OBI",
            "display": "Observation Instance Identifier"
          } ]
        },
        "system": "https://mein.krankenhaus.de/fhir/NamingSystem/observationId",
        "value": "0791af4b70817759e836d30bb6038f4a78131e5f6596ae03403212ad9e42eab0",
        "assigner": {
          "reference": "Organization/3a4f3433bce81181bad2d8e0b8fafccf7dc800bc06f29be73dcb38b750a48f9a"
        }
      } ],
      "status": "final",
      "category": [ {
        "coding": [ {
          "system": "http://terminology.hl7.org/CodeSystem/observation-category",
          "code": "laboratory",
          "display": "Laboratory"
        }, {
          "system": "http://loinc.org",
          "code": "26436-6"
        } ]
      } ],
      "code": {
        "coding": [ {
          "system": "http://loinc.org",
          "code": "2325-9",
          "display": "gamma-glutamyl-transferase-aspartate-aminotransferase-in-serum-or-plasma"
        } ],
        "text": "gammagt"
      },
      "subject": {
        "reference": "Patient/f50acce6bcc9db07b0d0720850badecf8b24efbca4debf78f5ac8213635d5cc7"
      },
      "encounter": {
        "reference": "Encounter/bf74a0c7e9c8d81b6c5282c278d15a140052250d1179784429bd420ab70f9f16"
      },
      "effectiveDateTime": "2020-09-16T00:36:00+00:00",
      "valueQuantity": {
        "value": 4.880209764074872,
        "unit": "U/L",
        "system": "http://unitsofmeasure.org",
        "code": "U/L"
      }
    },
    "request": {
      "method": "POST",
      "url": "Observation",
      "ifNoneExist": "identifier=https://mein.krankenhaus.de/fhir/NamingSystem/observationId|3925dee8519f12161666f9885811027faad3769a0b18cbc262ae601894640871"
    }
  }, {
    "fullUrl": "Observation/8af8427d8dff87287ae91cbb84c8bfad4fd993ddcb537d58dfe6ea1d7b436406",
    "resource": {
      "resourceType": "Observation",
      "meta": {
        "profile": [ "https://www.medizininformatik-initiative.de/fhir/core/modul-labor/StructureDefinition/ObservationLab" ]
      },
      "identifier": [ {
        "type": {
          "coding": [ {
            "system": "http://terminology.hl7.org/CodeSystem/v2-0203",
            "code": "OBI",
            "display": "Observation Instance Identifier"
          } ]
        },
        "system": "https://mein.krankenhaus.de/fhir/NamingSystem/observationId",
        "value": "ac17e62ce3cdfe4dfd5b329835db452ba404f2f22d4e3e7c8baf797d0f4122de",
        "assigner": {
          "reference": "Organization/3a4f3433bce81181bad2d8e0b8fafccf7dc800bc06f29be73dcb38b750a48f9a"
        }
      } ],
      "status": "final",
      "category": [ {
        "coding": [ {
          "system": "http://terminology.hl7.org/CodeSystem/observation-category",
          "code": "laboratory",
          "display": "Laboratory"
        }, {
          "system": "http://loinc.org",
          "code": "26436-6"
        } ]
      } ],
      "code": {
        "coding": [ {
          "system": "http://loinc.org",
          "code": "1920-8",
          "display": "aspartate-aminotransferase-in-serum-or-plasma"
        } ],
        "text": "gotast"
      },
      "subject": {
        "reference": "Patient/f50acce6bcc9db07b0d0720850badecf8b24efbca4debf78f5ac8213635d5cc7"
      },
      "encounter": {
        "reference": "Encounter/bf74a0c7e9c8d81b6c5282c278d15a140052250d1179784429bd420ab70f9f16"
      },
      "effectiveDateTime": "2020-09-16T00:36:00+00:00",
      "valueQuantity": {
        "value": 4.42171443901459,
        "unit": "U/L",
        "system": "http://unitsofmeasure.org",
        "code": "U/L"
      }
    },
    "request": {
      "method": "POST",
      "url": "Observation",
      "ifNoneExist": "identifier=https://mein.krankenhaus.de/fhir/NamingSystem/observationId|8af8427d8dff87287ae91cbb84c8bfad4fd993ddcb537d58dfe6ea1d7b436406"
    }
  }, {
    "fullUrl": "Observation/9231f744d58c21d8793abdcba6090e11e1f7aa5f7cab003416f966cbaedbcec8",
    "resource": {
      "resourceType": "Observation",
      "meta": {
        "profile": [ "https://www.medizininformatik-initiative.de/fhir/core/modul-labor/StructureDefinition/ObservationLab" ]
      },
      "identifier": [ {
        "type": {
          "coding": [ {
            "system": "http://terminology.hl7.org/CodeSystem/v2-0203",
            "code": "OBI",
            "display": "Observation Instance Identifier"
          } ]
        },
        "system": "https://mein.krankenhaus.de/fhir/NamingSystem/observationId",
        "value": "5a1b7ea93e41a75eee93f74452b11317cc9fbf97a7b9cda77dfcbe19ef8b5362",
        "assigner": {
          "reference": "Organization/3a4f3433bce81181bad2d8e0b8fafccf7dc800bc06f29be73dcb38b750a48f9a"
        }
      } ],
      "status": "final",
      "category": [ {
        "coding": [ {
          "system": "http://terminology.hl7.org/CodeSystem/observation-category",
          "code": "laboratory",
          "display": "Laboratory"
        }, {
          "system": "http://loinc.org",
          "code": "26436-6"
        } ]
      } ],
      "code": {
        "coding": [ {
          "system": "http://loinc.org",
          "code": "14805-6",
          "display": "lactate-dehydrogenase-in-serum-or-plasma-by-pyruvate-to-lactate-reaction"
        } ],
        "text": "ldh"
      },
      "subject": {
        "reference": "Patient/f50acce6bcc9db07b0d0720850badecf8b24efbca4debf78f5ac8213635d5cc7"
      },
      "encounter": {
        "reference": "Encounter/bf74a0c7e9c8d81b6c5282c278d15a140052250d1179784429bd420ab70f9f16"
      },
      "effectiveDateTime": "2020-09-16T00:36:00+00:00",
      "valueQuantity": {
        "value": 95.99049566460708,
        "unit": "U/L",
        "system": "http://unitsofmeasure.org",
        "code": "U/L"
      }
    },
    "request": {
      "method": "POST",
      "url": "Observation",
      "ifNoneExist": "identifier=https://mein.krankenhaus.de/fhir/NamingSystem/observationId|9231f744d58c21d8793abdcba6090e11e1f7aa5f7cab003416f966cbaedbcec8"
    }
  }, {
    "fullUrl": "Observation/bd820a46d64ab94bc22f1a937cd5cc92d99d9590b7a785246707264b59d1c789",
    "resource": {
      "resourceType": "Observation",
      "meta": {
        "profile": [ "https://www.medizininformatik-initiative.de/fhir/core/modul-labor/StructureDefinition/ObservationLab" ]
      },
      "identifier": [ {
        "type": {
          "coding": [ {
            "system": "http://terminology.hl7.org/CodeSystem/v2-0203",
            "code": "OBI",
            "display": "Observation Instance Identifier"
          } ]
        },
        "system": "https://mein.krankenhaus.de/fhir/NamingSystem/observationId",
        "value": "7bdfdd07f93f33faafc0a5c4610738c833c8bec593e08b85002a615bf386d737",
        "assigner": {
          "reference": "Organization/3a4f3433bce81181bad2d8e0b8fafccf7dc800bc06f29be73dcb38b750a48f9a"
        }
      } ],
      "status": "final",
      "category": [ {
        "coding": [ {
          "system": "http://terminology.hl7.org/CodeSystem/observation-category",
          "code": "laboratory",
          "display": "Laboratory"
        }, {
          "system": "http://loinc.org",
          "code": "26436-6"
        } ]
      } ],
      "code": {
        "coding": [ {
          "system": "http://loinc.org",
          "code": "42757-5",
          "display": "troponin-i.cardiac-in-blood"
        } ],
        "text": "kardiale_troponine"
      },
      "subject": {
        "reference": "Patient/f50acce6bcc9db07b0d0720850badecf8b24efbca4debf78f5ac8213635d5cc7"
      },
      "encounter": {
        "reference": "Encounter/bf74a0c7e9c8d81b6c5282c278d15a140052250d1179784429bd420ab70f9f16"
      },
      "effectiveDateTime": "2020-09-16T00:36:00+00:00",
      "valueQuantity": {
        "value": 1.2663654994587215,
        "unit": "ug/L",
        "system": "http://unitsofmeasure.org",
        "code": "ug/L"
      }
    },
    "request": {
      "method": "POST",
      "url": "Observation",
      "ifNoneExist": "identifier=https://mein.krankenhaus.de/fhir/NamingSystem/observationId|bd820a46d64ab94bc22f1a937cd5cc92d99d9590b7a785246707264b59d1c789"
    }
  }, {
    "fullUrl": "Observation/3118e883b2ce7e9f534b143625fac1ba11ccb4d9eea90d411477eada58e9e134",
    "resource": {
      "resourceType": "Observation",
      "meta": {
        "profile": [ "https://www.medizininformatik-initiative.de/fhir/core/modul-labor/StructureDefinition/ObservationLab" ]
      },
      "identifier": [ {
        "type": {
          "coding": [ {
            "system": "http://terminology.hl7.org/CodeSystem/v2-0203",
            "code": "OBI",
            "display": "Observation Instance Identifier"
          } ]
        },
        "system": "https://mein.krankenhaus.de/fhir/NamingSystem/observationId",
        "value": "726bcd95437dc0ba173aa892e7aa383407aea9405e27b94d641c072c65f8b166",
        "assigner": {
          "reference": "Organization/3a4f3433bce81181bad2d8e0b8fafccf7dc800bc06f29be73dcb38b750a48f9a"
        }
      } ],
      "status": "final",
      "category": [ {
        "coding": [ {
          "system": "http://terminology.hl7.org/CodeSystem/observation-category",
          "code": "laboratory",
          "display": "Laboratory"
        }, {
          "system": "http://loinc.org",
          "code": "26436-6"
        } ]
      } ],
      "code": {
        "coding": [ {
          "system": "http://loinc.org",
          "code": "59260-0",
          "display": "hemoglobin-in-blood"
        } ],
        "text": "hamoglobin"
      },
      "subject": {
        "reference": "Patient/f50acce6bcc9db07b0d0720850badecf8b24efbca4debf78f5ac8213635d5cc7"
      },
      "encounter": {
        "reference": "Encounter/bf74a0c7e9c8d81b6c5282c278d15a140052250d1179784429bd420ab70f9f16"
      },
      "effectiveDateTime": "2020-09-16T00:36:00+00:00",
      "valueQuantity": {
        "value": 3.0532641933749494,
        "unit": "mmol/L",
        "system": "http://unitsofmeasure.org",
        "code": "mmol/L"
      }
    },
    "request": {
      "method": "POST",
      "url": "Observation",
      "ifNoneExist": "identifier=https://mein.krankenhaus.de/fhir/NamingSystem/observationId|3118e883b2ce7e9f534b143625fac1ba11ccb4d9eea90d411477eada58e9e134"
    }
  }, {
    "fullUrl": "Observation/9cc6433613d60b79a5014f610b0b4784a84061bb1224b2ac99d4ad02af1d6ad1",
    "resource": {
      "resourceType": "Observation",
      "meta": {
        "profile": [ "https://www.medizininformatik-initiative.de/fhir/core/modul-labor/StructureDefinition/ObservationLab" ]
      },
      "identifier": [ {
        "type": {
          "coding": [ {
            "system": "http://terminology.hl7.org/CodeSystem/v2-0203",
            "code": "OBI",
            "display": "Observation Instance Identifier"
          } ]
        },
        "system": "https://mein.krankenhaus.de/fhir/NamingSystem/observationId",
        "value": "16fbcdc1b6ed126ea3ce12141ee1166c97ada54ff780bf4df2c2f8a8e20c5824",
        "assigner": {
          "reference": "Organization/3a4f3433bce81181bad2d8e0b8fafccf7dc800bc06f29be73dcb38b750a48f9a"
        }
      } ],
      "status": "final",
      "category": [ {
        "coding": [ {
          "system": "http://terminology.hl7.org/CodeSystem/observation-category",
          "code": "laboratory",
          "display": "Laboratory"
        }, {
          "system": "http://loinc.org",
          "code": "26436-6"
        } ]
      } ],
      "code": {
        "coding": [ {
          "system": "http://loinc.org",
          "code": "2160-0",
          "display": "creatinine-in-serum-or-plasma"
        } ],
        "text": "kreatinin"
      },
      "subject": {
        "reference": "Patient/f50acce6bcc9db07b0d0720850badecf8b24efbca4debf78f5ac8213635d5cc7"
      },
      "encounter": {
        "reference": "Encounter/bf74a0c7e9c8d81b6c5282c278d15a140052250d1179784429bd420ab70f9f16"
      },
      "effectiveDateTime": "2020-09-16T00:36:00+00:00",
      "valueQuantity": {
        "value": 61.206846612832955,
        "unit": "mg/L",
        "system": "http://unitsofmeasure.org",
        "code": "mg/L"
      }
    },
    "request": {
      "method": "POST",
      "url": "Observation",
      "ifNoneExist": "identifier=https://mein.krankenhaus.de/fhir/NamingSystem/observationId|9cc6433613d60b79a5014f610b0b4784a84061bb1224b2ac99d4ad02af1d6ad1"
    }
  }, {
    "fullUrl": "Observation/28721db8c59f6a78c28c7c2740ffded9453ce77d630eef0ee6b82d3de2113892",
    "resource": {
      "resourceType": "Observation",
      "meta": {
        "profile": [ "https://www.medizininformatik-initiative.de/fhir/core/modul-labor/StructureDefinition/ObservationLab" ]
      },
      "identifier": [ {
        "type": {
          "coding": [ {
            "system": "http://terminology.hl7.org/CodeSystem/v2-0203",
            "code": "OBI",
            "display": "Observation Instance Identifier"
          } ]
        },
        "system": "https://mein.krankenhaus.de/fhir/NamingSystem/observationId",
        "value": "5dd6dc876cc00ab47b15e8749815e65b110bd27864c79d40234ced347092916b",
        "assigner": {
          "reference": "Organization/3a4f3433bce81181bad2d8e0b8fafccf7dc800bc06f29be73dcb38b750a48f9a"
        }
      } ],
      "status": "final",
      "category": [ {
        "coding": [ {
          "system": "http://terminology.hl7.org/CodeSystem/observation-category",
          "code": "laboratory",
          "display": "Laboratory"
        }, {
          "system": "http://loinc.org",
          "code": "26436-6"
        } ]
      } ],
      "code": {
        "coding": [ {
          "system": "http://loinc.org",
          "code": "32693-4",
          "display": "lactate-in-blood"
        } ],
        "text": "laktat"
      },
      "subject": {
        "reference": "Patient/f50acce6bcc9db07b0d0720850badecf8b24efbca4debf78f5ac8213635d5cc7"
      },
      "encounter": {
        "reference": "Encounter/bf74a0c7e9c8d81b6c5282c278d15a140052250d1179784429bd420ab70f9f16"
      },
      "effectiveDateTime": "2020-09-16T00:36:00+00:00",
      "valueQuantity": {
        "value": 43.52649844130734,
        "unit": "mmol/L",
        "system": "http://unitsofmeasure.org",
        "code": "mmol/L"
      }
    },
    "request": {
      "method": "POST",
      "url": "Observation",
      "ifNoneExist": "identifier=https://mein.krankenhaus.de/fhir/NamingSystem/observationId|28721db8c59f6a78c28c7c2740ffded9453ce77d630eef0ee6b82d3de2113892"
    }
  }, {
    "fullUrl": "Observation/19c2f6b8cc59aa7bd0d4f991a6965aba3edff73dea0df962031445f685657037",
    "resource": {
      "resourceType": "Observation",
      "meta": {
        "profile": [ "https://www.medizininformatik-initiative.de/fhir/core/modul-labor/StructureDefinition/ObservationLab" ]
      },
      "identifier": [ {
        "type": {
          "coding": [ {
            "system": "http://terminology.hl7.org/CodeSystem/v2-0203",
            "code": "OBI",
            "display": "Observation Instance Identifier"
          } ]
        },
        "system": "https://mein.krankenhaus.de/fhir/NamingSystem/observationId",
        "value": "001e0852df2ef54dfe9df653e27e229a4f0291710334c6db4ff03ca43c51d635",
        "assigner": {
          "reference": "Organization/3a4f3433bce81181bad2d8e0b8fafccf7dc800bc06f29be73dcb38b750a48f9a"
        }
      } ],
      "status": "final",
      "category": [ {
        "coding": [ {
          "system": "http://terminology.hl7.org/CodeSystem/observation-category",
          "code": "laboratory",
          "display": "Laboratory"
        }, {
          "system": "http://loinc.org",
          "code": "26436-6"
        } ]
      } ],
      "code": {
        "coding": [ {
          "system": "http://loinc.org",
          "code": "49498-9",
          "display": "leukocytes-in-blood-by-estimate"
        } ],
        "text": "leukozyten_absolut"
      },
      "subject": {
        "reference": "Patient/f50acce6bcc9db07b0d0720850badecf8b24efbca4debf78f5ac8213635d5cc7"
      },
      "encounter": {
        "reference": "Encounter/bf74a0c7e9c8d81b6c5282c278d15a140052250d1179784429bd420ab70f9f16"
      },
      "effectiveDateTime": "2020-09-16T00:36:00+00:00",
      "valueQuantity": {
        "value": 30.822586428809863,
        "unit": "10*3/uL",
        "system": "http://unitsofmeasure.org",
        "code": "10*3/uL"
      }
    },
    "request": {
      "method": "POST",
      "url": "Observation",
      "ifNoneExist": "identifier=https://mein.krankenhaus.de/fhir/NamingSystem/observationId|19c2f6b8cc59aa7bd0d4f991a6965aba3edff73dea0df962031445f685657037"
    }
  }, {
    "fullUrl": "Observation/441c0fd496cdf925eaa329249bfcbdeaa9c42bd37866ba626cc294f4eb47c737",
    "resource": {
      "resourceType": "Observation",
      "meta": {
        "profile": [ "https://www.medizininformatik-initiative.de/fhir/core/modul-labor/StructureDefinition/ObservationLab" ]
      },
      "identifier": [ {
        "type": {
          "coding": [ {
            "system": "http://terminology.hl7.org/CodeSystem/v2-0203",
            "code": "OBI",
            "display": "Observation Instance Identifier"
          } ]
        },
        "system": "https://mein.krankenhaus.de/fhir/NamingSystem/observationId",
        "value": "6021136904ce2353f2c2285874197e3984ef466e02f6f99e03b080d385e3bbee",
        "assigner": {
          "reference": "Organization/3a4f3433bce81181bad2d8e0b8fafccf7dc800bc06f29be73dcb38b750a48f9a"
        }
      } ],
      "status": "final",
      "category": [ {
        "coding": [ {
          "system": "http://terminology.hl7.org/CodeSystem/observation-category",
          "code": "laboratory",
          "display": "Laboratory"
        }, {
          "system": "http://loinc.org",
          "code": "26436-6"
        } ]
      } ],
      "code": {
        "coding": [ {
          "system": "http://loinc.org",
          "code": "30364-4",
          "display": "lymphocytes-in-blood-by-flow-cytometry-fc"
        } ],
        "text": "lymphozyten_absolut"
      },
      "subject": {
        "reference": "Patient/f50acce6bcc9db07b0d0720850badecf8b24efbca4debf78f5ac8213635d5cc7"
      },
      "encounter": {
        "reference": "Encounter/bf74a0c7e9c8d81b6c5282c278d15a140052250d1179784429bd420ab70f9f16"
      },
      "effectiveDateTime": "2020-09-16T00:36:00+00:00",
      "valueQuantity": {
        "value": 55.87664610371269,
        "unit": "10*3/uL",
        "system": "http://unitsofmeasure.org",
        "code": "10*3/uL"
      }
    },
    "request": {
      "method": "POST",
      "url": "Observation",
      "ifNoneExist": "identifier=https://mein.krankenhaus.de/fhir/NamingSystem/observationId|441c0fd496cdf925eaa329249bfcbdeaa9c42bd37866ba626cc294f4eb47c737"
    }
  }, {
    "fullUrl": "Observation/7e0da58bf75eac868f703527a5e1c533369581c12a0dc85fccd3d25a1facda36",
    "resource": {
      "resourceType": "Observation",
      "meta": {
        "profile": [ "https://www.medizininformatik-initiative.de/fhir/core/modul-labor/StructureDefinition/ObservationLab" ]
      },
      "identifier": [ {
        "type": {
          "coding": [ {
            "system": "http://terminology.hl7.org/CodeSystem/v2-0203",
            "code": "OBI",
            "display": "Observation Instance Identifier"
          } ]
        },
        "system": "https://mein.krankenhaus.de/fhir/NamingSystem/observationId",
        "value": "8f2a51a1b695286c70b6c2f7f82255a354dd779549735e87faded31508865394",
        "assigner": {
          "reference": "Organization/3a4f3433bce81181bad2d8e0b8fafccf7dc800bc06f29be73dcb38b750a48f9a"
        }
      } ],
      "status": "final",
      "category": [ {
        "coding": [ {
          "system": "http://terminology.hl7.org/CodeSystem/observation-category",
          "code": "laboratory",
          "display": "Laboratory"
        }, {
          "system": "http://loinc.org",
          "code": "26436-6"
        } ]
      } ],
      "code": {
        "coding": [ {
          "system": "http://loinc.org",
          "code": "26499-4",
          "display": "neutrophils-in-blood"
        } ],
        "text": "neutrophile_absolut"
      },
      "subject": {
        "reference": "Patient/f50acce6bcc9db07b0d0720850badecf8b24efbca4debf78f5ac8213635d5cc7"
      },
      "encounter": {
        "reference": "Encounter/bf74a0c7e9c8d81b6c5282c278d15a140052250d1179784429bd420ab70f9f16"
      },
      "effectiveDateTime": "2020-09-16T00:36:00+00:00",
      "valueQuantity": {
        "value": 56.93282104121769,
        "unit": "10*3/uL",
        "system": "http://unitsofmeasure.org",
        "code": "10*3/uL"
      }
    },
    "request": {
      "method": "POST",
      "url": "Observation",
      "ifNoneExist": "identifier=https://mein.krankenhaus.de/fhir/NamingSystem/observationId|7e0da58bf75eac868f703527a5e1c533369581c12a0dc85fccd3d25a1facda36"
    }
  }, {
    "fullUrl": "Observation/fcfb4a6584b06cb81f82194b269306a1725759b35a849b53b25161bb7f422c6f",
    "resource": {
      "resourceType": "Observation",
      "meta": {
        "profile": [ "https://www.medizininformatik-initiative.de/fhir/core/modul-labor/StructureDefinition/ObservationLab" ]
      },
      "identifier": [ {
        "type": {
          "coding": [ {
            "system": "http://terminology.hl7.org/CodeSystem/v2-0203",
            "code": "OBI",
            "display": "Observation Instance Identifier"
          } ]
        },
        "system": "https://mein.krankenhaus.de/fhir/NamingSystem/observationId",
        "value": "a048ccaea13cd2ba6adef342ac65d21d89407b9be1bf1bab9e8dd0e44cc74cef",
        "assigner": {
          "reference": "Organization/3a4f3433bce81181bad2d8e0b8fafccf7dc800bc06f29be73dcb38b750a48f9a"
        }
      } ],
      "status": "final",
      "category": [ {
        "coding": [ {
          "system": "http://terminology.hl7.org/CodeSystem/observation-category",
          "code": "laboratory",
          "display": "Laboratory"
        }, {
          "system": "http://loinc.org",
          "code": "26436-6"
        } ]
      } ],
      "code": {
        "coding": [ {
          "system": "http://loinc.org",
          "code": "43734-3",
          "display": "aptt-in-platelet-poor-plasma-by-coagulation-11-saline"
        } ],
        "text": "ptt"
      },
      "subject": {
        "reference": "Patient/f50acce6bcc9db07b0d0720850badecf8b24efbca4debf78f5ac8213635d5cc7"
      },
      "encounter": {
        "reference": "Encounter/bf74a0c7e9c8d81b6c5282c278d15a140052250d1179784429bd420ab70f9f16"
      },
      "effectiveDateTime": "2020-09-16T00:36:00+00:00",
      "valueQuantity": {
        "value": 72.78708431650311,
        "unit": "s",
        "system": "http://unitsofmeasure.org",
        "code": "s"
      }
    },
    "request": {
      "method": "POST",
      "url": "Observation",
      "ifNoneExist": "identifier=https://mein.krankenhaus.de/fhir/NamingSystem/observationId|fcfb4a6584b06cb81f82194b269306a1725759b35a849b53b25161bb7f422c6f"
    }
  }, {
    "fullUrl": "Observation/e904b4cdaa8bfe207972194112d3aba87d211a0c7bddbf6d30f77a0041ca7495",
    "resource": {
      "resourceType": "Observation",
      "meta": {
        "profile": [ "https://www.medizininformatik-initiative.de/fhir/core/modul-labor/StructureDefinition/ObservationLab" ]
      },
      "identifier": [ {
        "type": {
          "coding": [ {
            "system": "http://terminology.hl7.org/CodeSystem/v2-0203",
            "code": "OBI",
            "display": "Observation Instance Identifier"
          } ]
        },
        "system": "https://mein.krankenhaus.de/fhir/NamingSystem/observationId",
        "value": "57529ab71eb77e43a6099250ec77c8007b7b883cccdba5c396727dbf58a7fe78",
        "assigner": {
          "reference": "Organization/3a4f3433bce81181bad2d8e0b8fafccf7dc800bc06f29be73dcb38b750a48f9a"
        }
      } ],
      "status": "final",
      "category": [ {
        "coding": [ {
          "system": "http://terminology.hl7.org/CodeSystem/observation-category",
          "code": "laboratory",
          "display": "Laboratory"
        }, {
          "system": "http://loinc.org",
          "code": "26436-6"
        } ]
      } ],
      "code": {
        "coding": [ {
          "system": "http://loinc.org",
          "code": "13056-7",
          "display": "platelets-in-plasma-by-automated-count"
        } ],
        "text": "thrombozyten_absolut"
      },
      "subject": {
        "reference": "Patient/f50acce6bcc9db07b0d0720850badecf8b24efbca4debf78f5ac8213635d5cc7"
      },
      "encounter": {
        "reference": "Encounter/bf74a0c7e9c8d81b6c5282c278d15a140052250d1179784429bd420ab70f9f16"
      },
      "effectiveDateTime": "2020-09-16T00:36:00+00:00",
      "valueQuantity": {
        "value": 49.07215155438438,
        "unit": "10*3/uL",
        "system": "http://unitsofmeasure.org",
        "code": "10*3/uL"
      }
    },
    "request": {
      "method": "POST",
      "url": "Observation",
      "ifNoneExist": "identifier=https://mein.krankenhaus.de/fhir/NamingSystem/observationId|e904b4cdaa8bfe207972194112d3aba87d211a0c7bddbf6d30f77a0041ca7495"
    }
  }, {
    "fullUrl": "Observation/25ebdd682c7477b547438e943040ae58a35e83d1f98b308608b28afcc2705d70",
    "resource": {
      "resourceType": "Observation",
      "meta": {
        "profile": [ "https://www.medizininformatik-initiative.de/fhir/core/modul-labor/StructureDefinition/ObservationLab" ]
      },
      "identifier": [ {
        "type": {
          "coding": [ {
            "system": "http://terminology.hl7.org/CodeSystem/v2-0203",
            "code": "OBI",
            "display": "Observation Instance Identifier"
          } ]
        },
        "system": "https://mein.krankenhaus.de/fhir/NamingSystem/observationId",
        "value": "0a44dc3cb6d933d6bd4b2a804f7f782a67cbb6f56bfde69c0622a96e34d53850",
        "assigner": {
          "reference": "Organization/3a4f3433bce81181bad2d8e0b8fafccf7dc800bc06f29be73dcb38b750a48f9a"
        }
      } ],
      "status": "final",
      "category": [ {
        "coding": [ {
          "system": "http://terminology.hl7.org/CodeSystem/observation-category",
          "code": "laboratory",
          "display": "Laboratory"
        }, {
          "system": "http://loinc.org",
          "code": "26436-6"
        } ]
      } ],
      "code": {
        "coding": [ {
          "system": "http://loinc.org",
          "code": "34714-6",
          "display": "inr-in-blood-by-coagulation-assay"
        } ],
        "text": "inr"
      },
      "subject": {
        "reference": "Patient/f50acce6bcc9db07b0d0720850badecf8b24efbca4debf78f5ac8213635d5cc7"
      },
      "encounter": {
        "reference": "Encounter/bf74a0c7e9c8d81b6c5282c278d15a140052250d1179784429bd420ab70f9f16"
      },
      "effectiveDateTime": "2020-09-16T00:36:00+00:00",
      "valueQuantity": {
        "value": 85.38967864883872,
        "unit": "{INR}",
        "system": "http://unitsofmeasure.org",
        "code": "{INR}"
      }
    },
    "request": {
      "method": "POST",
      "url": "Observation",
      "ifNoneExist": "identifier=https://mein.krankenhaus.de/fhir/NamingSystem/observationId|25ebdd682c7477b547438e943040ae58a35e83d1f98b308608b28afcc2705d70"
    }
  }, {
    "fullUrl": "Observation/90a71670fc41bfb8fa7481d20b28aac385929f9fe98733614e09731313e12c93",
    "resource": {
      "resourceType": "Observation",
      "meta": {
        "profile": [ "https://www.medizininformatik-initiative.de/fhir/core/modul-labor/StructureDefinition/ObservationLab" ]
      },
      "identifier": [ {
        "type": {
          "coding": [ {
            "system": "http://terminology.hl7.org/CodeSystem/v2-0203",
            "code": "OBI",
            "display": "Observation Instance Identifier"
          } ]
        },
        "system": "https://mein.krankenhaus.de/fhir/NamingSystem/observationId",
        "value": "15d22a63a98a92d91b065e8ea7593855a4ad60655fa8441e699de36deb779324",
        "assigner": {
          "reference": "Organization/3a4f3433bce81181bad2d8e0b8fafccf7dc800bc06f29be73dcb38b750a48f9a"
        }
      } ],
      "status": "final",
      "category": [ {
        "coding": [ {
          "system": "http://terminology.hl7.org/CodeSystem/observation-category",
          "code": "laboratory",
          "display": "Laboratory"
        }, {
          "system": "http://loinc.org",
          "code": "26436-6"
        } ]
      } ],
      "code": {
        "coding": [ {
          "system": "http://loinc.org",
          "code": "1751-7",
          "display": "albumin-in-serum-or-plasma"
        } ],
        "text": "serumalbumin"
      },
      "subject": {
        "reference": "Patient/f50acce6bcc9db07b0d0720850badecf8b24efbca4debf78f5ac8213635d5cc7"
      },
      "encounter": {
        "reference": "Encounter/bf74a0c7e9c8d81b6c5282c278d15a140052250d1179784429bd420ab70f9f16"
      },
      "effectiveDateTime": "2020-09-16T00:36:00+00:00",
      "valueQuantity": {
        "value": 33.94786362570077,
        "unit": "g/L",
        "system": "http://unitsofmeasure.org",
        "code": "g/L"
      }
    },
    "request": {
      "method": "POST",
      "url": "Observation",
      "ifNoneExist": "identifier=https://mein.krankenhaus.de/fhir/NamingSystem/observationId|90a71670fc41bfb8fa7481d20b28aac385929f9fe98733614e09731313e12c93"
    }
  }, {
    "fullUrl": "Observation/382ff58c9c0c13c3377f9a118e61a3088a43a4fa48350df0fa119bc4bb157286",
    "resource": {
      "resourceType": "Observation",
      "meta": {
        "profile": [ "https://www.medizininformatik-initiative.de/fhir/core/modul-labor/StructureDefinition/ObservationLab" ]
      },
      "identifier": [ {
        "type": {
          "coding": [ {
            "system": "http://terminology.hl7.org/CodeSystem/v2-0203",
            "code": "OBI",
            "display": "Observation Instance Identifier"
          } ]
        },
        "system": "https://mein.krankenhaus.de/fhir/NamingSystem/observationId",
        "value": "a7ed406fa9e644685347017ffcf4c0089fd3888a6ce3600f9c6b85fcc340ab20",
        "assigner": {
          "reference": "Organization/3a4f3433bce81181bad2d8e0b8fafccf7dc800bc06f29be73dcb38b750a48f9a"
        }
      } ],
      "status": "final",
      "category": [ {
        "coding": [ {
          "system": "http://terminology.hl7.org/CodeSystem/observation-category",
          "code": "laboratory",
          "display": "Laboratory"
        }, {
          "system": "http://loinc.org",
          "code": "26436-6"
        } ]
      } ],
      "code": {
        "coding": [ {
          "system": "http://loinc.org",
          "code": "3174-0",
          "display": "antithrombin-in-platelet-poor-plasma-by-chromogenic-method"
        } ],
        "text": "antithrombin_iii"
      },
      "subject": {
        "reference": "Patient/f50acce6bcc9db07b0d0720850badecf8b24efbca4debf78f5ac8213635d5cc7"
      },
      "encounter": {
        "reference": "Encounter/bf74a0c7e9c8d81b6c5282c278d15a140052250d1179784429bd420ab70f9f16"
      },
      "effectiveDateTime": "2020-09-16T00:36:00+00:00",
      "valueQuantity": {
        "value": 76.08691919760105,
        "unit": "[IU]/mL",
        "system": "http://unitsofmeasure.org",
        "code": "[IU]/mL"
      }
    },
    "request": {
      "method": "POST",
      "url": "Observation",
      "ifNoneExist": "identifier=https://mein.krankenhaus.de/fhir/NamingSystem/observationId|382ff58c9c0c13c3377f9a118e61a3088a43a4fa48350df0fa119bc4bb157286"
    }
  }, {
    "fullUrl": "Observation/df7496dbaed8640fde076a4fab201458b28fcd1dc88fee690b3ffa0d5139bc43",
    "resource": {
      "resourceType": "Observation",
      "meta": {
        "profile": [ "https://www.medizininformatik-initiative.de/fhir/core/modul-labor/StructureDefinition/ObservationLab" ]
      },
      "identifier": [ {
        "type": {
          "coding": [ {
            "system": "http://terminology.hl7.org/CodeSystem/v2-0203",
            "code": "OBI",
            "display": "Observation Instance Identifier"
          } ]
        },
        "system": "https://mein.krankenhaus.de/fhir/NamingSystem/observationId",
        "value": "103051e9bb610da82bc1c10d4879b937ce9e3e2cd66614e9194ca0885b389ed8",
        "assigner": {
          "reference": "Organization/3a4f3433bce81181bad2d8e0b8fafccf7dc800bc06f29be73dcb38b750a48f9a"
        }
      } ],
      "status": "final",
      "category": [ {
        "coding": [ {
          "system": "http://terminology.hl7.org/CodeSystem/observation-category",
          "code": "laboratory",
          "display": "Laboratory"
        }, {
          "system": "http://loinc.org",
          "code": "26436-6"
        } ]
      } ],
      "code": {
        "coding": [ {
          "system": "http://loinc.org",
          "code": "75241-0",
          "display": "procalcitonin-in-serum-or-plasma-by-immunoassay"
        } ],
        "text": "pct_procalcitonin"
      },
      "subject": {
        "reference": "Patient/f50acce6bcc9db07b0d0720850badecf8b24efbca4debf78f5ac8213635d5cc7"
      },
      "encounter": {
        "reference": "Encounter/bf74a0c7e9c8d81b6c5282c278d15a140052250d1179784429bd420ab70f9f16"
      },
      "effectiveDateTime": "2020-09-16T00:36:00+00:00",
      "valueQuantity": {
        "value": 76.97421804475866,
        "unit": "ng/mL",
        "system": "http://unitsofmeasure.org",
        "code": "ng/mL"
      }
    },
    "request": {
      "method": "POST",
      "url": "Observation",
      "ifNoneExist": "identifier=https://mein.krankenhaus.de/fhir/NamingSystem/observationId|df7496dbaed8640fde076a4fab201458b28fcd1dc88fee690b3ffa0d5139bc43"
    }
  }, {
    "fullUrl": "Observation/e4b7b714f2bd002e0976b3b2ea423d1479e970028349a4dc6818c543f8380196",
    "resource": {
      "resourceType": "Observation",
      "meta": {
        "profile": [ "https://www.medizininformatik-initiative.de/fhir/core/modul-labor/StructureDefinition/ObservationLab" ]
      },
      "identifier": [ {
        "type": {
          "coding": [ {
            "system": "http://terminology.hl7.org/CodeSystem/v2-0203",
            "code": "OBI",
            "display": "Observation Instance Identifier"
          } ]
        },
        "system": "https://mein.krankenhaus.de/fhir/NamingSystem/observationId",
        "value": "0e34d3d46df49ffdff20ed4d7b49b8f06912bbdff86aeb148e53424f50e24041",
        "assigner": {
          "reference": "Organization/3a4f3433bce81181bad2d8e0b8fafccf7dc800bc06f29be73dcb38b750a48f9a"
        }
      } ],
      "status": "final",
      "category": [ {
        "coding": [ {
          "system": "http://terminology.hl7.org/CodeSystem/observation-category",
          "code": "laboratory",
          "display": "Laboratory"
        }, {
          "system": "http://loinc.org",
          "code": "26436-6"
        } ]
      } ],
      "code": {
        "coding": [ {
          "system": "http://loinc.org",
          "code": "44322-6",
          "display": "interleukin-6-in-serum-or-plasma"
        } ],
        "text": "il6_interleukin_6"
      },
      "subject": {
        "reference": "Patient/f50acce6bcc9db07b0d0720850badecf8b24efbca4debf78f5ac8213635d5cc7"
      },
      "encounter": {
        "reference": "Encounter/bf74a0c7e9c8d81b6c5282c278d15a140052250d1179784429bd420ab70f9f16"
      },
      "effectiveDateTime": "2020-09-16T00:36:00+00:00",
      "valueQuantity": {
        "value": 95.46566159760485,
        "unit": "pg/mL",
        "system": "http://unitsofmeasure.org",
        "code": "pg/mL"
      }
    },
    "request": {
      "method": "POST",
      "url": "Observation",
      "ifNoneExist": "identifier=https://mein.krankenhaus.de/fhir/NamingSystem/observationId|e4b7b714f2bd002e0976b3b2ea423d1479e970028349a4dc6818c543f8380196"
    }
  }, {
    "fullUrl": "Observation/330d7368e8af743401913b66a27b424c5510cb1225d899de08acc58603f9d78b",
    "resource": {
      "resourceType": "Observation",
      "meta": {
        "profile": [ "https://www.medizininformatik-initiative.de/fhir/core/modul-labor/StructureDefinition/ObservationLab" ]
      },
      "identifier": [ {
        "type": {
          "coding": [ {
            "system": "http://terminology.hl7.org/CodeSystem/v2-0203",
            "code": "OBI",
            "display": "Observation Instance Identifier"
          } ]
        },
        "system": "https://mein.krankenhaus.de/fhir/NamingSystem/observationId",
        "value": "bdd54c09efc0c7ac01120c6be7612a65c205568df83f5afdecc890f0093a870c",
        "assigner": {
          "reference": "Organization/3a4f3433bce81181bad2d8e0b8fafccf7dc800bc06f29be73dcb38b750a48f9a"
        }
      } ],
      "status": "final",
      "category": [ {
        "coding": [ {
          "system": "http://terminology.hl7.org/CodeSystem/observation-category",
          "code": "laboratory",
          "display": "Laboratory"
        }, {
          "system": "http://loinc.org",
          "code": "26436-6"
        } ]
      } ],
      "code": {
        "coding": [ {
          "system": "http://loinc.org",
          "code": "83107-3",
          "display": "natriuretic-peptide.b-prohormone-n-terminal-in-serum-or-plasma-by-immunoassay"
        } ],
        "text": "ntprobnp"
      },
      "subject": {
        "reference": "Patient/f50acce6bcc9db07b0d0720850badecf8b24efbca4debf78f5ac8213635d5cc7"
      },
      "encounter": {
        "reference": "Encounter/bf74a0c7e9c8d81b6c5282c278d15a140052250d1179784429bd420ab70f9f16"
      },
      "effectiveDateTime": "2020-09-16T00:36:00+00:00",
      "valueQuantity": {
        "value": 39.69556429647611,
        "unit": "pg/mL",
        "system": "http://unitsofmeasure.org",
        "code": "pg/mL"
      }
    },
    "request": {
      "method": "POST",
      "url": "Observation",
      "ifNoneExist": "identifier=https://mein.krankenhaus.de/fhir/NamingSystem/observationId|330d7368e8af743401913b66a27b424c5510cb1225d899de08acc58603f9d78b"
    }
  }, {
    "fullUrl": "Observation/6eb245719b3c2fd0b716c667cc2be491a27778b15a530ecb1c6a4923d669b5fd",
    "resource": {
      "resourceType": "Observation",
      "meta": {
        "profile": [ "https://www.medizininformatik-initiative.de/fhir/core/modul-labor/StructureDefinition/ObservationLab" ]
      },
      "identifier": [ {
        "type": {
          "coding": [ {
            "system": "http://terminology.hl7.org/CodeSystem/v2-0203",
            "code": "OBI",
            "display": "Observation Instance Identifier"
          } ]
        },
        "system": "https://mein.krankenhaus.de/fhir/NamingSystem/observationId",
        "value": "3fcecba34fcad4c373f05ac2bbefa7af4a71202e9fbaf5895fdc2d8ecad2d231",
        "assigner": {
          "reference": "Organization/3a4f3433bce81181bad2d8e0b8fafccf7dc800bc06f29be73dcb38b750a48f9a"
        }
      } ],
      "status": "final",
      "category": [ {
        "coding": [ {
          "system": "http://terminology.hl7.org/CodeSystem/observation-category",
          "code": "laboratory",
          "display": "Laboratory"
        }, {
          "system": "http://loinc.org",
          "code": "26436-6"
        } ]
      } ],
      "code": {
        "coding": [ {
          "system": "http://loinc.org",
          "code": "3255-7",
          "display": "fibrinogen-in-platelet-poor-plasma-by-coagulation-assay"
        } ],
        "text": "fibrinogen"
      },
      "subject": {
        "reference": "Patient/f50acce6bcc9db07b0d0720850badecf8b24efbca4debf78f5ac8213635d5cc7"
      },
      "encounter": {
        "reference": "Encounter/bf74a0c7e9c8d81b6c5282c278d15a140052250d1179784429bd420ab70f9f16"
      },
      "effectiveDateTime": "2020-09-16T00:36:00+00:00",
      "valueQuantity": {
        "value": 0.6617471990438273,
        "unit": "mg/dL",
        "system": "http://unitsofmeasure.org",
        "code": "mg/dL"
      }
    },
    "request": {
      "method": "POST",
      "url": "Observation",
      "ifNoneExist": "identifier=https://mein.krankenhaus.de/fhir/NamingSystem/observationId|6eb245719b3c2fd0b716c667cc2be491a27778b15a530ecb1c6a4923d669b5fd"
    }
  }, {
    "fullUrl": "Observation/15bef411d1e9598f7a617ceedfea8ab9fbedb8d7ebdd8f0821f4bbd8f8ad1684",
    "resource": {
      "resourceType": "Observation",
      "meta": {
        "profile": [ "https://www.netzwerk-universitaetsmedizin.de/fhir/StructureDefinition/sars-cov-2-rt-pcr" ]
      },
      "identifier": [ {
        "type": {
          "coding": [ {
            "system": "http://terminology.hl7.org/CodeSystem/v2-0203",
            "code": "OBI",
            "display": "Observation Instance Identifier"
          } ]
        },
        "system": "https://mein.krankenhaus.de/fhir/NamingSystem/observationId",
        "value": "953ba54dd98e2ad9a60bf365cb4c81bec397225d57c54baed1a1508cc921f43d",
        "assigner": {
          "reference": "Organization/3a4f3433bce81181bad2d8e0b8fafccf7dc800bc06f29be73dcb38b750a48f9a"
        }
      } ],
      "status": "final",
      "category": [ {
        "coding": [ {
          "system": "http://terminology.hl7.org/CodeSystem/observation-category",
          "code": "laboratory",
          "display": "Laboratory"
        }, {
          "system": "http://loinc.org",
          "code": "26436-6"
        } ]
      } ],
      "code": {
        "coding": [ {
          "system": "http://loinc.org",
          "code": "94500-6",
          "display": "sars-cov-2-covid-19-rna-in-respiratory-specimen-by-naa-with-probe-detection"
        } ],
        "text": "SARS-CoV-2-RNA (PCR)"
      },
      "subject": {
        "reference": "Patient/f50acce6bcc9db07b0d0720850badecf8b24efbca4debf78f5ac8213635d5cc7"
      },
      "encounter": {
        "reference": "Encounter/bf74a0c7e9c8d81b6c5282c278d15a140052250d1179784429bd420ab70f9f16"
      },
      "effectiveDateTime": "2020-09-16T00:36:00+00:00",
      "valueCodeableConcept": {
        "coding": [ {
          "system": "http://snomed.info/sct",
          "code": "260415000",
          "display": "Not detected (qualifier value)"
        } ],
        "text": "SARS-CoV-2-RNA negativ"
      }
    },
    "request": {
      "method": "POST",
      "url": "Observation",
      "ifNoneExist": "identifier=https://mein.krankenhaus.de/fhir/NamingSystem/observationId|15bef411d1e9598f7a617ceedfea8ab9fbedb8d7ebdd8f0821f4bbd8f8ad1684"
    }
  }, {
    "fullUrl": "Observation/38b8a4155e6e92a8d4682dee87bd8eac9d196a0a57950373d81e981860a9de33",
    "resource": {
      "resourceType": "Observation",
      "meta": {
        "profile": [ "https://www.netzwerk-universitaetsmedizin.de/fhir/StructureDefinition/sars-cov-2-ab-pnl-ser-pl-ia" ]
      },
      "identifier": [ {
        "type": {
          "coding": [ {
            "system": "http://terminology.hl7.org/CodeSystem/v2-0203",
            "code": "OBI",
            "display": "Observation Instance Identifier"
          } ]
        },
        "system": "https://mein.krankenhaus.de/fhir/NamingSystem/observationId",
        "value": "f082f6c0e6ee5ce1819e61b1e5329227a010749a9b76416cdf44fceb87b56419",
        "assigner": {
          "reference": "Organization/3a4f3433bce81181bad2d8e0b8fafccf7dc800bc06f29be73dcb38b750a48f9a"
        }
      } ],
      "status": "final",
      "category": [ {
        "coding": [ {
          "system": "http://terminology.hl7.org/CodeSystem/observation-category",
          "code": "laboratory",
          "display": "Laboratory"
        }, {
          "system": "http://loinc.org",
          "code": "26436-6"
        } ]
      } ],
      "code": {
        "coding": [ {
          "system": "http://loinc.org",
          "code": "94504-8"
        } ],
        "text": "sarsco_v2_covid19_ab_pnl"
      },
      "subject": {
        "reference": "Patient/f50acce6bcc9db07b0d0720850badecf8b24efbca4debf78f5ac8213635d5cc7"
      },
      "encounter": {
        "reference": "Encounter/bf74a0c7e9c8d81b6c5282c278d15a140052250d1179784429bd420ab70f9f16"
      },
      "effectiveDateTime": "2020-09-16T00:36:00+00:00",
      "hasMember": [ {
        "reference": "Observation/74d8b326731496b765e8669009827c39d6b041ebb53fa68b4c8e6a3747f5066d"
      }, {
        "reference": "Observation/f2a684c1592200e2bb81d38756998126ef814aa7a94aef12af8380c29f4a9f36"
      }, {
        "reference": "Observation/5d7450896842009ec07b8f154aa0759a6858de378183961ea734318590d2d413"
      }, {
        "reference": "Observation/b9f900cee0994fcc04e188a820de16b517e43b18f65a9d3cb4b1058970cede2b"
      }, {
        "reference": "Observation/c9646dab6738052372b93c84ce81d71a193dcaf25af6eca1a17085d9c82aaeae"
      }, {
        "reference": "Observation/331d347d44164c93e21238724fba861ce56c8e3df02311e8b5d742c01a0c4790"
      }, {
        "reference": "Observation/40cb34aa5519c3c8d1320fcb288a3ab9677256fdccd421ab693536bdb8e63634"
      }, {
        "reference": "Observation/9458b638adcbd18096202f8283b46b9c1d40e0d9d010a97d877e6469edda9adc"
      } ]
    },
    "request": {
      "method": "POST",
      "url": "Observation",
      "ifNoneExist": "identifier=https://mein.krankenhaus.de/fhir/NamingSystem/observationId|38b8a4155e6e92a8d4682dee87bd8eac9d196a0a57950373d81e981860a9de33"
    }
  }, {
    "fullUrl": "Observation/74d8b326731496b765e8669009827c39d6b041ebb53fa68b4c8e6a3747f5066d",
    "resource": {
      "resourceType": "Observation",
      "meta": {
        "profile": [ "https://www.netzwerk-universitaetsmedizin.de/fhir/StructureDefinition/sars-cov-2-ab-ser-pl-ql-ia" ]
      },
      "identifier": [ {
        "type": {
          "coding": [ {
            "system": "http://terminology.hl7.org/CodeSystem/v2-0203",
            "code": "OBI",
            "display": "Observation Instance Identifier"
          } ]
        },
        "system": "https://mein.krankenhaus.de/fhir/NamingSystem/observationId",
        "value": "488164adda705d2131b7561edf345c2c44b9231bbfd6b617589ae2c1fc9201fb",
        "assigner": {
          "reference": "Organization/3a4f3433bce81181bad2d8e0b8fafccf7dc800bc06f29be73dcb38b750a48f9a"
        }
      } ],
      "status": "final",
      "category": [ {
        "coding": [ {
          "system": "http://terminology.hl7.org/CodeSystem/observation-category",
          "code": "laboratory",
          "display": "Laboratory"
        }, {
          "system": "http://loinc.org",
          "code": "26436-6"
        } ]
      } ],
      "code": {
        "coding": [ {
          "system": "http://loinc.org",
          "code": "94762-2",
          "display": "sars-cov-2-covid-19-ab-in-serum-or-plasma-by-immunoassay"
        } ],
        "text": "sarsco_v2_covid19_ab_ia_ql"
      },
      "subject": {
        "reference": "Patient/f50acce6bcc9db07b0d0720850badecf8b24efbca4debf78f5ac8213635d5cc7"
      },
      "encounter": {
        "reference": "Encounter/bf74a0c7e9c8d81b6c5282c278d15a140052250d1179784429bd420ab70f9f16"
      },
      "effectiveDateTime": "2020-09-16T00:36:00+00:00",
      "valueCodeableConcept": {
        "coding": [ {
          "system": "http://snomed.info/sct",
          "code": "260373001"
        } ]
      }
    },
    "request": {
      "method": "POST",
      "url": "Observation",
      "ifNoneExist": "identifier=https://mein.krankenhaus.de/fhir/NamingSystem/observationId|74d8b326731496b765e8669009827c39d6b041ebb53fa68b4c8e6a3747f5066d"
    }
  }, {
    "fullUrl": "Observation/f2a684c1592200e2bb81d38756998126ef814aa7a94aef12af8380c29f4a9f36",
    "resource": {
      "resourceType": "Observation",
      "meta": {
        "profile": [ "https://www.netzwerk-universitaetsmedizin.de/fhir/StructureDefinition/sars-cov-2-ab-ser-pl-ia-acnc" ]
      },
      "identifier": [ {
        "type": {
          "coding": [ {
            "system": "http://terminology.hl7.org/CodeSystem/v2-0203",
            "code": "OBI",
            "display": "Observation Instance Identifier"
          } ]
        },
        "system": "https://mein.krankenhaus.de/fhir/NamingSystem/observationId",
        "value": "917d4a1468719a0612ec3007779776bc2a5ea4561922613dba7e668adec98e09",
        "assigner": {
          "reference": "Organization/3a4f3433bce81181bad2d8e0b8fafccf7dc800bc06f29be73dcb38b750a48f9a"
        }
      } ],
      "status": "final",
      "category": [ {
        "coding": [ {
          "system": "http://terminology.hl7.org/CodeSystem/observation-category",
          "code": "laboratory",
          "display": "Laboratory"
        }, {
          "system": "http://loinc.org",
          "code": "26436-6"
        } ]
      } ],
      "code": {
        "coding": [ {
          "system": "http://loinc.org",
          "code": "94769-7",
          "display": "sars-cov-2-covid-19-ab-in-serum-or-plasma-by-immunoassay"
        } ],
        "text": "sarsco_v2_covid19_ab_ia_qn"
      },
      "subject": {
        "reference": "Patient/f50acce6bcc9db07b0d0720850badecf8b24efbca4debf78f5ac8213635d5cc7"
      },
      "encounter": {
        "reference": "Encounter/bf74a0c7e9c8d81b6c5282c278d15a140052250d1179784429bd420ab70f9f16"
      },
      "effectiveDateTime": "2020-09-16T00:36:00+00:00",
      "valueQuantity": {
        "value": 55.5950182947845,
        "unit": "[IU]/mL",
        "system": "http://unitsofmeasure.org",
        "code": "[IU]/mL"
      }
    },
    "request": {
      "method": "POST",
      "url": "Observation",
      "ifNoneExist": "identifier=https://mein.krankenhaus.de/fhir/NamingSystem/observationId|f2a684c1592200e2bb81d38756998126ef814aa7a94aef12af8380c29f4a9f36"
    }
  }, {
    "fullUrl": "Observation/5d7450896842009ec07b8f154aa0759a6858de378183961ea734318590d2d413",
    "resource": {
      "resourceType": "Observation",
      "meta": {
        "profile": [ "https://www.netzwerk-universitaetsmedizin.de/fhir/StructureDefinition/sars-cov-2-iga-ser-pl-ql-ia" ]
      },
      "identifier": [ {
        "type": {
          "coding": [ {
            "system": "http://terminology.hl7.org/CodeSystem/v2-0203",
            "code": "OBI",
            "display": "Observation Instance Identifier"
          } ]
        },
        "system": "https://mein.krankenhaus.de/fhir/NamingSystem/observationId",
        "value": "3500010646c2c748e8c2a3b665914ad9ce0fb62482abf08ce78151dca126497e",
        "assigner": {
          "reference": "Organization/3a4f3433bce81181bad2d8e0b8fafccf7dc800bc06f29be73dcb38b750a48f9a"
        }
      } ],
      "status": "final",
      "category": [ {
        "coding": [ {
          "system": "http://terminology.hl7.org/CodeSystem/observation-category",
          "code": "laboratory",
          "display": "Laboratory"
        }, {
          "system": "http://loinc.org",
          "code": "26436-6"
        } ]
      } ],
      "code": {
        "coding": [ {
          "system": "http://loinc.org",
          "code": "94562-6",
          "display": "sars-cov-2-covid-19-iga-ab-in-serum-or-plasma-by-immunoassay"
        } ],
        "text": "sarsco_v2_covid19_ig_a_ia_ql"
      },
      "subject": {
        "reference": "Patient/f50acce6bcc9db07b0d0720850badecf8b24efbca4debf78f5ac8213635d5cc7"
      },
      "encounter": {
        "reference": "Encounter/bf74a0c7e9c8d81b6c5282c278d15a140052250d1179784429bd420ab70f9f16"
      },
      "effectiveDateTime": "2020-09-16T00:36:00+00:00",
      "valueCodeableConcept": {
        "coding": [ {
          "system": "http://snomed.info/sct",
          "code": "419984006"
        } ]
      }
    },
    "request": {
      "method": "POST",
      "url": "Observation",
      "ifNoneExist": "identifier=https://mein.krankenhaus.de/fhir/NamingSystem/observationId|5d7450896842009ec07b8f154aa0759a6858de378183961ea734318590d2d413"
    }
  }, {
    "fullUrl": "Observation/b9f900cee0994fcc04e188a820de16b517e43b18f65a9d3cb4b1058970cede2b",
    "resource": {
      "resourceType": "Observation",
      "meta": {
        "profile": [ "https://www.netzwerk-universitaetsmedizin.de/fhir/StructureDefinition/sars-cov-2-iga-ser-pl-ia-acnc" ]
      },
      "identifier": [ {
        "type": {
          "coding": [ {
            "system": "http://terminology.hl7.org/CodeSystem/v2-0203",
            "code": "OBI",
            "display": "Observation Instance Identifier"
          } ]
        },
        "system": "https://mein.krankenhaus.de/fhir/NamingSystem/observationId",
        "value": "d83f55d48f537c261c08103dc181b3fa6d18c1a148e39b285c6f92799b7b5e2b",
        "assigner": {
          "reference": "Organization/3a4f3433bce81181bad2d8e0b8fafccf7dc800bc06f29be73dcb38b750a48f9a"
        }
      } ],
      "status": "final",
      "category": [ {
        "coding": [ {
          "system": "http://terminology.hl7.org/CodeSystem/observation-category",
          "code": "laboratory",
          "display": "Laboratory"
        }, {
          "system": "http://loinc.org",
          "code": "26436-6"
        } ]
      } ],
      "code": {
        "coding": [ {
          "system": "http://loinc.org",
          "code": "94720-0",
          "display": "sars-cov-2-covid-19-iga-ab-in-serum-or-plasma-by-immunoassay"
        } ],
        "text": "sarsco_v2_covid19_ig_a_ia_qn"
      },
      "subject": {
        "reference": "Patient/f50acce6bcc9db07b0d0720850badecf8b24efbca4debf78f5ac8213635d5cc7"
      },
      "encounter": {
        "reference": "Encounter/bf74a0c7e9c8d81b6c5282c278d15a140052250d1179784429bd420ab70f9f16"
      },
      "effectiveDateTime": "2020-09-16T00:36:00+00:00",
      "valueQuantity": {
        "value": 15.655731752161362,
        "unit": "[IU]/mL",
        "system": "http://unitsofmeasure.org",
        "code": "[IU]/mL"
      }
    },
    "request": {
      "method": "POST",
      "url": "Observation",
      "ifNoneExist": "identifier=https://mein.krankenhaus.de/fhir/NamingSystem/observationId|b9f900cee0994fcc04e188a820de16b517e43b18f65a9d3cb4b1058970cede2b"
    }
  }, {
    "fullUrl": "Observation/c9646dab6738052372b93c84ce81d71a193dcaf25af6eca1a17085d9c82aaeae",
    "resource": {
      "resourceType": "Observation",
      "meta": {
        "profile": [ "https://www.netzwerk-universitaetsmedizin.de/fhir/StructureDefinition/sars-cov-2-igg-ser-pl-ql-ia" ]
      },
      "identifier": [ {
        "type": {
          "coding": [ {
            "system": "http://terminology.hl7.org/CodeSystem/v2-0203",
            "code": "OBI",
            "display": "Observation Instance Identifier"
          } ]
        },
        "system": "https://mein.krankenhaus.de/fhir/NamingSystem/observationId",
        "value": "a136839e30dfa30665e55af8d65e9f9a739cf3a9ba36e317331c492197087fbd",
        "assigner": {
          "reference": "Organization/3a4f3433bce81181bad2d8e0b8fafccf7dc800bc06f29be73dcb38b750a48f9a"
        }
      } ],
      "status": "final",
      "category": [ {
        "coding": [ {
          "system": "http://terminology.hl7.org/CodeSystem/observation-category",
          "code": "laboratory",
          "display": "Laboratory"
        }, {
          "system": "http://loinc.org",
          "code": "26436-6"
        } ]
      } ],
      "code": {
        "coding": [ {
          "system": "http://loinc.org",
          "code": "94563-4",
          "display": "sars-cov-2-covid-19-igg-ab-in-serum-or-plasma-by-immunoassay"
        } ],
        "text": "sarsco_v2_covid19_ig_g_ia_ql"
      },
      "subject": {
        "reference": "Patient/f50acce6bcc9db07b0d0720850badecf8b24efbca4debf78f5ac8213635d5cc7"
      },
      "encounter": {
        "reference": "Encounter/bf74a0c7e9c8d81b6c5282c278d15a140052250d1179784429bd420ab70f9f16"
      },
      "effectiveDateTime": "2020-09-16T00:36:00+00:00",
      "valueCodeableConcept": {
        "coding": [ {
          "system": "http://snomed.info/sct",
          "code": "260373001"
        } ]
      }
    },
    "request": {
      "method": "POST",
      "url": "Observation",
      "ifNoneExist": "identifier=https://mein.krankenhaus.de/fhir/NamingSystem/observationId|c9646dab6738052372b93c84ce81d71a193dcaf25af6eca1a17085d9c82aaeae"
    }
  }, {
    "fullUrl": "Observation/331d347d44164c93e21238724fba861ce56c8e3df02311e8b5d742c01a0c4790",
    "resource": {
      "resourceType": "Observation",
      "meta": {
        "profile": [ "https://www.netzwerk-universitaetsmedizin.de/fhir/StructureDefinition/sars-cov-2-igg-ser-pl-ia-acnc" ]
      },
      "identifier": [ {
        "type": {
          "coding": [ {
            "system": "http://terminology.hl7.org/CodeSystem/v2-0203",
            "code": "OBI",
            "display": "Observation Instance Identifier"
          } ]
        },
        "system": "https://mein.krankenhaus.de/fhir/NamingSystem/observationId",
        "value": "d393397d53934e03c852e997b989a266a3d77e0da9f56da1e43dfcc50ddaf1d7",
        "assigner": {
          "reference": "Organization/3a4f3433bce81181bad2d8e0b8fafccf7dc800bc06f29be73dcb38b750a48f9a"
        }
      } ],
      "status": "final",
      "category": [ {
        "coding": [ {
          "system": "http://terminology.hl7.org/CodeSystem/observation-category",
          "code": "laboratory",
          "display": "Laboratory"
        }, {
          "system": "http://loinc.org",
          "code": "26436-6"
        } ]
      } ],
      "code": {
        "coding": [ {
          "system": "http://loinc.org",
          "code": "94505-5",
          "display": "sars-cov-2-covid-19-igg-ab-in-serum-or-plasma-by-immunoassay"
        } ],
        "text": "sarsco_v2_covid19_ig_g_ia_qn"
      },
      "subject": {
        "reference": "Patient/f50acce6bcc9db07b0d0720850badecf8b24efbca4debf78f5ac8213635d5cc7"
      },
      "encounter": {
        "reference": "Encounter/bf74a0c7e9c8d81b6c5282c278d15a140052250d1179784429bd420ab70f9f16"
      },
      "effectiveDateTime": "2020-09-16T00:36:00+00:00",
      "valueQuantity": {
        "value": 51.821775555633685,
        "unit": "[arb'U]/mL",
        "system": "http://unitsofmeasure.org",
        "code": "[arb'U]/mL"
      }
    },
    "request": {
      "method": "POST",
      "url": "Observation",
      "ifNoneExist": "identifier=https://mein.krankenhaus.de/fhir/NamingSystem/observationId|331d347d44164c93e21238724fba861ce56c8e3df02311e8b5d742c01a0c4790"
    }
  }, {
    "fullUrl": "Observation/40cb34aa5519c3c8d1320fcb288a3ab9677256fdccd421ab693536bdb8e63634",
    "resource": {
      "resourceType": "Observation",
      "meta": {
        "profile": [ "https://www.netzwerk-universitaetsmedizin.de/fhir/StructureDefinition/sars-cov-2-igm-ser-pl-ql-ia" ]
      },
      "identifier": [ {
        "type": {
          "coding": [ {
            "system": "http://terminology.hl7.org/CodeSystem/v2-0203",
            "code": "OBI",
            "display": "Observation Instance Identifier"
          } ]
        },
        "system": "https://mein.krankenhaus.de/fhir/NamingSystem/observationId",
        "value": "90e9cc2675f1f6f69dfbd7ed4fd58135dd4832b425d2106f7bc7bd0aaf27f637",
        "assigner": {
          "reference": "Organization/3a4f3433bce81181bad2d8e0b8fafccf7dc800bc06f29be73dcb38b750a48f9a"
        }
      } ],
      "status": "final",
      "category": [ {
        "coding": [ {
          "system": "http://terminology.hl7.org/CodeSystem/observation-category",
          "code": "laboratory",
          "display": "Laboratory"
        }, {
          "system": "http://loinc.org",
          "code": "26436-6"
        } ]
      } ],
      "code": {
        "coding": [ {
          "system": "http://loinc.org",
          "code": "94564-2",
          "display": "sars-cov-2-covid-19-igm-ab-in-serum-or-plasma-by-immunoassay"
        } ],
        "text": "sarsco_v2_covid19_ig_m_ia_ql"
      },
      "subject": {
        "reference": "Patient/f50acce6bcc9db07b0d0720850badecf8b24efbca4debf78f5ac8213635d5cc7"
      },
      "encounter": {
        "reference": "Encounter/bf74a0c7e9c8d81b6c5282c278d15a140052250d1179784429bd420ab70f9f16"
      },
      "effectiveDateTime": "2020-09-16T00:36:00+00:00",
      "valueCodeableConcept": {
        "coding": [ {
          "system": "http://snomed.info/sct",
          "code": "419984006"
        } ]
      }
    },
    "request": {
      "method": "POST",
      "url": "Observation",
      "ifNoneExist": "identifier=https://mein.krankenhaus.de/fhir/NamingSystem/observationId|40cb34aa5519c3c8d1320fcb288a3ab9677256fdccd421ab693536bdb8e63634"
    }
  }, {
    "fullUrl": "Observation/9458b638adcbd18096202f8283b46b9c1d40e0d9d010a97d877e6469edda9adc",
    "resource": {
      "resourceType": "Observation",
      "meta": {
        "profile": [ "https://www.netzwerk-universitaetsmedizin.de/fhir/StructureDefinition/sars-cov-2-igm-ser-pl-ia-acnc" ]
      },
      "identifier": [ {
        "type": {
          "coding": [ {
            "system": "http://terminology.hl7.org/CodeSystem/v2-0203",
            "code": "OBI",
            "display": "Observation Instance Identifier"
          } ]
        },
        "system": "https://mein.krankenhaus.de/fhir/NamingSystem/observationId",
        "value": "941389b33674fb2c32b20016a66bcffb2cfd3836a2e73ca97d3ba5fb6740bdb9",
        "assigner": {
          "reference": "Organization/3a4f3433bce81181bad2d8e0b8fafccf7dc800bc06f29be73dcb38b750a48f9a"
        }
      } ],
      "status": "final",
      "category": [ {
        "coding": [ {
          "system": "http://terminology.hl7.org/CodeSystem/observation-category",
          "code": "laboratory",
          "display": "Laboratory"
        }, {
          "system": "http://loinc.org",
          "code": "26436-6"
        } ]
      } ],
      "code": {
        "coding": [ {
          "system": "http://loinc.org",
          "code": "94506-3",
          "display": "sars-cov-2-covid-19-igm-ab-in-serum-or-plasma-by-immunoassay"
        } ],
        "text": "sarsco_v2_covid19_ig_m_ia_qn"
      },
      "subject": {
        "reference": "Patient/f50acce6bcc9db07b0d0720850badecf8b24efbca4debf78f5ac8213635d5cc7"
      },
      "encounter": {
        "reference": "Encounter/bf74a0c7e9c8d81b6c5282c278d15a140052250d1179784429bd420ab70f9f16"
      },
      "effectiveDateTime": "2020-09-16T00:36:00+00:00",
      "valueQuantity": {
        "value": 14.901329342827607,
        "unit": "[arb'U]/mL",
        "system": "http://unitsofmeasure.org",
        "code": "[arb'U]/mL"
      }
    },
    "request": {
      "method": "POST",
      "url": "Observation",
      "ifNoneExist": "identifier=https://mein.krankenhaus.de/fhir/NamingSystem/observationId|9458b638adcbd18096202f8283b46b9c1d40e0d9d010a97d877e6469edda9adc"
    }
  }, {
    "fullUrl": "Observation/b77b4b4edf8b30f06dd89dce87bfb53f71210885d8cf0129b501bef09a200b72",
    "resource": {
      "resourceType": "Observation",
      "meta": {
        "profile": [ "https://www.medizininformatik-initiative.de/fhir/core/modul-labor/StructureDefinition/ObservationLab" ]
      },
      "identifier": [ {
        "type": {
          "coding": [ {
            "system": "http://terminology.hl7.org/CodeSystem/v2-0203",
            "code": "OBI",
            "display": "Observation Instance Identifier"
          } ]
        },
        "system": "https://mein.krankenhaus.de/fhir/NamingSystem/observationId",
        "value": "135d4511fe49f3e8c3174efde95db4a535c49bbe37823c1608e99bacbc0db413",
        "assigner": {
          "reference": "Organization/3a4f3433bce81181bad2d8e0b8fafccf7dc800bc06f29be73dcb38b750a48f9a"
        }
      } ],
      "status": "final",
      "category": [ {
        "coding": [ {
          "system": "http://terminology.hl7.org/CodeSystem/observation-category",
          "code": "laboratory",
          "display": "Laboratory"
        }, {
          "system": "http://loinc.org",
          "code": "26436-6"
        } ]
      } ],
      "code": {
        "coding": [ {
          "system": "http://loinc.org",
          "code": "76485-2",
          "display": "c-reactive-protein-in-serum-or-plasma"
        } ],
        "text": "crp"
      },
      "subject": {
        "reference": "Patient/f50acce6bcc9db07b0d0720850badecf8b24efbca4debf78f5ac8213635d5cc7"
      },
      "encounter": {
        "reference": "Encounter/bf74a0c7e9c8d81b6c5282c278d15a140052250d1179784429bd420ab70f9f16"
      },
      "effectiveDateTime": "2020-04-10T15:47:00+00:00",
      "valueQuantity": {
        "value": 16.121458370372586,
        "unit": "nmol/L",
        "system": "http://unitsofmeasure.org",
        "code": "nmol/L"
      }
    },
    "request": {
      "method": "POST",
      "url": "Observation",
      "ifNoneExist": "identifier=https://mein.krankenhaus.de/fhir/NamingSystem/observationId|b77b4b4edf8b30f06dd89dce87bfb53f71210885d8cf0129b501bef09a200b72"
    }
  }, {
    "fullUrl": "Observation/63c0727d22d7b3045c747e9a507e3491bbf3d9cd47757d37d04074634562ce56",
    "resource": {
      "resourceType": "Observation",
      "meta": {
        "profile": [ "https://www.medizininformatik-initiative.de/fhir/core/modul-labor/StructureDefinition/ObservationLab" ]
      },
      "identifier": [ {
        "type": {
          "coding": [ {
            "system": "http://terminology.hl7.org/CodeSystem/v2-0203",
            "code": "OBI",
            "display": "Observation Instance Identifier"
          } ]
        },
        "system": "https://mein.krankenhaus.de/fhir/NamingSystem/observationId",
        "value": "c552c43aa08af5b5fd70a1d0271538e5cfae233e808290e3d04f62876183b373",
        "assigner": {
          "reference": "Organization/3a4f3433bce81181bad2d8e0b8fafccf7dc800bc06f29be73dcb38b750a48f9a"
        }
      } ],
      "status": "final",
      "category": [ {
        "coding": [ {
          "system": "http://terminology.hl7.org/CodeSystem/observation-category",
          "code": "laboratory",
          "display": "Laboratory"
        }, {
          "system": "http://loinc.org",
          "code": "26436-6"
        } ]
      } ],
      "code": {
        "coding": [ {
          "system": "http://loinc.org",
          "code": "86914-9",
          "display": "ferritin-goal-serum-or-plasma"
        } ],
        "text": "ferritin"
      },
      "subject": {
        "reference": "Patient/f50acce6bcc9db07b0d0720850badecf8b24efbca4debf78f5ac8213635d5cc7"
      },
      "encounter": {
        "reference": "Encounter/bf74a0c7e9c8d81b6c5282c278d15a140052250d1179784429bd420ab70f9f16"
      },
      "effectiveDateTime": "2020-04-10T15:47:00+00:00",
      "valueQuantity": {
        "value": 83.90982303800033,
        "unit": "ng/mL",
        "system": "http://unitsofmeasure.org",
        "code": "ng/mL"
      }
    },
    "request": {
      "method": "POST",
      "url": "Observation",
      "ifNoneExist": "identifier=https://mein.krankenhaus.de/fhir/NamingSystem/observationId|63c0727d22d7b3045c747e9a507e3491bbf3d9cd47757d37d04074634562ce56"
    }
  }, {
    "fullUrl": "Observation/a3ce6c1122277a8e21ecdd792d7eccf93d96781a01ba1982489877a01cdf1a5c",
    "resource": {
      "resourceType": "Observation",
      "meta": {
        "profile": [ "https://www.medizininformatik-initiative.de/fhir/core/modul-labor/StructureDefinition/ObservationLab" ]
      },
      "identifier": [ {
        "type": {
          "coding": [ {
            "system": "http://terminology.hl7.org/CodeSystem/v2-0203",
            "code": "OBI",
            "display": "Observation Instance Identifier"
          } ]
        },
        "system": "https://mein.krankenhaus.de/fhir/NamingSystem/observationId",
        "value": "4ce41e929f3dfb0351ebc72eb0b9c9563997ce9ff53ce9d27fa8e5c059330721",
        "assigner": {
          "reference": "Organization/3a4f3433bce81181bad2d8e0b8fafccf7dc800bc06f29be73dcb38b750a48f9a"
        }
      } ],
      "status": "final",
      "category": [ {
        "coding": [ {
          "system": "http://terminology.hl7.org/CodeSystem/observation-category",
          "code": "laboratory",
          "display": "Laboratory"
        }, {
          "system": "http://loinc.org",
          "code": "26436-6"
        } ]
      } ],
      "code": {
        "coding": [ {
          "system": "http://loinc.org",
          "code": "14631-6",
          "display": "bilirubin.total-in-serum-or-plasma"
        } ],
        "text": "bilirubin"
      },
      "subject": {
        "reference": "Patient/f50acce6bcc9db07b0d0720850badecf8b24efbca4debf78f5ac8213635d5cc7"
      },
      "encounter": {
        "reference": "Encounter/bf74a0c7e9c8d81b6c5282c278d15a140052250d1179784429bd420ab70f9f16"
      },
      "effectiveDateTime": "2020-04-10T15:47:00+00:00",
      "valueQuantity": {
        "value": 31.018363723407138,
        "unit": "umol/L",
        "system": "http://unitsofmeasure.org",
        "code": "umol/L"
      }
    },
    "request": {
      "method": "POST",
      "url": "Observation",
      "ifNoneExist": "identifier=https://mein.krankenhaus.de/fhir/NamingSystem/observationId|a3ce6c1122277a8e21ecdd792d7eccf93d96781a01ba1982489877a01cdf1a5c"
    }
  }, {
    "fullUrl": "Observation/61f0d9b8a6cdd41fb5807e3505cf9240fc9620e76d4967271adce67c71e499cc",
    "resource": {
      "resourceType": "Observation",
      "meta": {
        "profile": [ "https://www.medizininformatik-initiative.de/fhir/core/modul-labor/StructureDefinition/ObservationLab" ]
      },
      "identifier": [ {
        "type": {
          "coding": [ {
            "system": "http://terminology.hl7.org/CodeSystem/v2-0203",
            "code": "OBI",
            "display": "Observation Instance Identifier"
          } ]
        },
        "system": "https://mein.krankenhaus.de/fhir/NamingSystem/observationId",
        "value": "9845a6da83c81736eb5c986d519ab6a237b13f067461c5292cc877bc0f54469b",
        "assigner": {
          "reference": "Organization/3a4f3433bce81181bad2d8e0b8fafccf7dc800bc06f29be73dcb38b750a48f9a"
        }
      } ],
      "status": "final",
      "category": [ {
        "coding": [ {
          "system": "http://terminology.hl7.org/CodeSystem/observation-category",
          "code": "laboratory",
          "display": "Laboratory"
        }, {
          "system": "http://loinc.org",
          "code": "26436-6"
        } ]
      } ],
      "code": {
        "coding": [ {
          "system": "http://loinc.org",
          "code": "91556-1",
          "display": "fibrin-d-dimer-ddu-in-blood-by-immunoassay"
        } ],
        "text": "ddimer"
      },
      "subject": {
        "reference": "Patient/f50acce6bcc9db07b0d0720850badecf8b24efbca4debf78f5ac8213635d5cc7"
      },
      "encounter": {
        "reference": "Encounter/bf74a0c7e9c8d81b6c5282c278d15a140052250d1179784429bd420ab70f9f16"
      },
      "effectiveDateTime": "2020-04-10T15:47:00+00:00",
      "valueQuantity": {
        "value": 79.22188676190436,
        "unit": "ng/mL",
        "system": "http://unitsofmeasure.org",
        "code": "ng/mL"
      }
    },
    "request": {
      "method": "POST",
      "url": "Observation",
      "ifNoneExist": "identifier=https://mein.krankenhaus.de/fhir/NamingSystem/observationId|61f0d9b8a6cdd41fb5807e3505cf9240fc9620e76d4967271adce67c71e499cc"
    }
  }, {
    "fullUrl": "Observation/05677fe3c823f0fd4f0bd6da37d31a58a4e51d593954653e3729fa2211277ac2",
    "resource": {
      "resourceType": "Observation",
      "meta": {
        "profile": [ "https://www.medizininformatik-initiative.de/fhir/core/modul-labor/StructureDefinition/ObservationLab" ]
      },
      "identifier": [ {
        "type": {
          "coding": [ {
            "system": "http://terminology.hl7.org/CodeSystem/v2-0203",
            "code": "OBI",
            "display": "Observation Instance Identifier"
          } ]
        },
        "system": "https://mein.krankenhaus.de/fhir/NamingSystem/observationId",
        "value": "9fffc746b50a53128a24bc9feb5cfbd75e7ac5d8dde5227145f12f9dc4c122d6",
        "assigner": {
          "reference": "Organization/3a4f3433bce81181bad2d8e0b8fafccf7dc800bc06f29be73dcb38b750a48f9a"
        }
      } ],
      "status": "final",
      "category": [ {
        "coding": [ {
          "system": "http://terminology.hl7.org/CodeSystem/observation-category",
          "code": "laboratory",
          "display": "Laboratory"
        }, {
          "system": "http://loinc.org",
          "code": "26436-6"
        } ]
      } ],
      "code": {
        "coding": [ {
          "system": "http://loinc.org",
          "code": "2325-9"
        }, {
          "system": "http://loinc.org",
          "code": "2324-2"
        } ],
        "text": "gammagt"
      },
      "subject": {
        "reference": "Patient/f50acce6bcc9db07b0d0720850badecf8b24efbca4debf78f5ac8213635d5cc7"
      },
      "encounter": {
        "reference": "Encounter/bf74a0c7e9c8d81b6c5282c278d15a140052250d1179784429bd420ab70f9f16"
      },
      "effectiveDateTime": "2020-04-10T15:47:00+00:00",
      "valueQuantity": {
        "value": 62.23853496232652,
        "unit": "U/L",
        "system": "http://unitsofmeasure.org",
        "code": "U/L"
      }
    },
    "request": {
      "method": "POST",
      "url": "Observation",
      "ifNoneExist": "identifier=https://mein.krankenhaus.de/fhir/NamingSystem/observationId|05677fe3c823f0fd4f0bd6da37d31a58a4e51d593954653e3729fa2211277ac2"
    }
  }, {
    "fullUrl": "Observation/57eb2faf682ed5c2e95aa97f86f5a166f4c50a51dbacd15045489181efc0968e",
    "resource": {
      "resourceType": "Observation",
      "meta": {
        "profile": [ "https://www.medizininformatik-initiative.de/fhir/core/modul-labor/StructureDefinition/ObservationLab" ]
      },
      "identifier": [ {
        "type": {
          "coding": [ {
            "system": "http://terminology.hl7.org/CodeSystem/v2-0203",
            "code": "OBI",
            "display": "Observation Instance Identifier"
          } ]
        },
        "system": "https://mein.krankenhaus.de/fhir/NamingSystem/observationId",
        "value": "98d34caa534cc3887560cc06f92d6216a14dfc7942cd30962840e48e3fad83dc",
        "assigner": {
          "reference": "Organization/3a4f3433bce81181bad2d8e0b8fafccf7dc800bc06f29be73dcb38b750a48f9a"
        }
      } ],
      "status": "final",
      "category": [ {
        "coding": [ {
          "system": "http://terminology.hl7.org/CodeSystem/observation-category",
          "code": "laboratory",
          "display": "Laboratory"
        }, {
          "system": "http://loinc.org",
          "code": "26436-6"
        } ]
      } ],
      "code": {
        "coding": [ {
          "system": "http://loinc.org",
          "code": "1920-8",
          "display": "aspartate-aminotransferase-in-serum-or-plasma"
        } ],
        "text": "gotast"
      },
      "subject": {
        "reference": "Patient/f50acce6bcc9db07b0d0720850badecf8b24efbca4debf78f5ac8213635d5cc7"
      },
      "encounter": {
        "reference": "Encounter/bf74a0c7e9c8d81b6c5282c278d15a140052250d1179784429bd420ab70f9f16"
      },
      "effectiveDateTime": "2020-04-10T15:47:00+00:00",
      "valueQuantity": {
        "value": 8.556210681933186,
        "unit": "U/L",
        "system": "http://unitsofmeasure.org",
        "code": "U/L"
      }
    },
    "request": {
      "method": "POST",
      "url": "Observation",
      "ifNoneExist": "identifier=https://mein.krankenhaus.de/fhir/NamingSystem/observationId|57eb2faf682ed5c2e95aa97f86f5a166f4c50a51dbacd15045489181efc0968e"
    }
  }, {
    "fullUrl": "Observation/b6368b9d8209f020b32b6604b359fce88e58db8b2764120b3635c4ea5cbeef56",
    "resource": {
      "resourceType": "Observation",
      "meta": {
        "profile": [ "https://www.medizininformatik-initiative.de/fhir/core/modul-labor/StructureDefinition/ObservationLab" ]
      },
      "identifier": [ {
        "type": {
          "coding": [ {
            "system": "http://terminology.hl7.org/CodeSystem/v2-0203",
            "code": "OBI",
            "display": "Observation Instance Identifier"
          } ]
        },
        "system": "https://mein.krankenhaus.de/fhir/NamingSystem/observationId",
        "value": "02fd71fbea8484e552b841adec859685a4e51a1e9c5f67335f1a8eabaadcfb07",
        "assigner": {
          "reference": "Organization/3a4f3433bce81181bad2d8e0b8fafccf7dc800bc06f29be73dcb38b750a48f9a"
        }
      } ],
      "status": "final",
      "category": [ {
        "coding": [ {
          "system": "http://terminology.hl7.org/CodeSystem/observation-category",
          "code": "laboratory",
          "display": "Laboratory"
        }, {
          "system": "http://loinc.org",
          "code": "26436-6"
        } ]
      } ],
      "code": {
        "coding": [ {
          "system": "http://loinc.org",
          "code": "14805-6",
          "display": "lactate-dehydrogenase-in-serum-or-plasma-by-pyruvate-to-lactate-reaction"
        } ],
        "text": "ldh"
      },
      "subject": {
        "reference": "Patient/f50acce6bcc9db07b0d0720850badecf8b24efbca4debf78f5ac8213635d5cc7"
      },
      "encounter": {
        "reference": "Encounter/bf74a0c7e9c8d81b6c5282c278d15a140052250d1179784429bd420ab70f9f16"
      },
      "effectiveDateTime": "2020-04-10T15:47:00+00:00",
      "valueQuantity": {
        "value": 60.53240607790321,
        "unit": "U/L",
        "system": "http://unitsofmeasure.org",
        "code": "U/L"
      }
    },
    "request": {
      "method": "POST",
      "url": "Observation",
      "ifNoneExist": "identifier=https://mein.krankenhaus.de/fhir/NamingSystem/observationId|b6368b9d8209f020b32b6604b359fce88e58db8b2764120b3635c4ea5cbeef56"
    }
  }, {
    "fullUrl": "Observation/46b86f64c609be8a88a9cdfb25af94b6875d11e3322ec55b5ac1ea1bdc8e93a2",
    "resource": {
      "resourceType": "Observation",
      "meta": {
        "profile": [ "https://www.medizininformatik-initiative.de/fhir/core/modul-labor/StructureDefinition/ObservationLab" ]
      },
      "identifier": [ {
        "type": {
          "coding": [ {
            "system": "http://terminology.hl7.org/CodeSystem/v2-0203",
            "code": "OBI",
            "display": "Observation Instance Identifier"
          } ]
        },
        "system": "https://mein.krankenhaus.de/fhir/NamingSystem/observationId",
        "value": "3604edc429e5318706a8a69d968667e58de4fdcf68c43a8bc2f92b3ef2acb6ea",
        "assigner": {
          "reference": "Organization/3a4f3433bce81181bad2d8e0b8fafccf7dc800bc06f29be73dcb38b750a48f9a"
        }
      } ],
      "status": "final",
      "category": [ {
        "coding": [ {
          "system": "http://terminology.hl7.org/CodeSystem/observation-category",
          "code": "laboratory",
          "display": "Laboratory"
        }, {
          "system": "http://loinc.org",
          "code": "26436-6"
        } ]
      } ],
      "code": {
        "coding": [ {
          "system": "http://loinc.org",
          "code": "67151-1",
          "display": "troponin-t.cardiac-in-serum-or-plasma-by-high-sensitivity-method"
        } ],
        "text": "kardiale_troponine"
      },
      "subject": {
        "reference": "Patient/f50acce6bcc9db07b0d0720850badecf8b24efbca4debf78f5ac8213635d5cc7"
      },
      "encounter": {
        "reference": "Encounter/bf74a0c7e9c8d81b6c5282c278d15a140052250d1179784429bd420ab70f9f16"
      },
      "effectiveDateTime": "2020-04-10T15:47:00+00:00",
      "valueQuantity": {
        "value": 26.88955835875949,
        "unit": "ng/L",
        "system": "http://unitsofmeasure.org",
        "code": "ng/L"
      }
    },
    "request": {
      "method": "POST",
      "url": "Observation",
      "ifNoneExist": "identifier=https://mein.krankenhaus.de/fhir/NamingSystem/observationId|46b86f64c609be8a88a9cdfb25af94b6875d11e3322ec55b5ac1ea1bdc8e93a2"
    }
  }, {
    "fullUrl": "Observation/7c3e10c6b92e800b8d36ecdc7fc8cf99af8c480ee65c921fdac137ecb1ad0eaa",
    "resource": {
      "resourceType": "Observation",
      "meta": {
        "profile": [ "https://www.medizininformatik-initiative.de/fhir/core/modul-labor/StructureDefinition/ObservationLab" ]
      },
      "identifier": [ {
        "type": {
          "coding": [ {
            "system": "http://terminology.hl7.org/CodeSystem/v2-0203",
            "code": "OBI",
            "display": "Observation Instance Identifier"
          } ]
        },
        "system": "https://mein.krankenhaus.de/fhir/NamingSystem/observationId",
        "value": "d662db7084a3062599820a258ddbb4dac767a3574ccd4f9b721d9e01bbebf45b",
        "assigner": {
          "reference": "Organization/3a4f3433bce81181bad2d8e0b8fafccf7dc800bc06f29be73dcb38b750a48f9a"
        }
      } ],
      "status": "final",
      "category": [ {
        "coding": [ {
          "system": "http://terminology.hl7.org/CodeSystem/observation-category",
          "code": "laboratory",
          "display": "Laboratory"
        }, {
          "system": "http://loinc.org",
          "code": "26436-6"
        } ]
      } ],
      "code": {
        "coding": [ {
          "system": "http://loinc.org",
          "code": "75928-2",
          "display": "hemoglobin-in-arterial-blood"
        } ],
        "text": "hamoglobin"
      },
      "subject": {
        "reference": "Patient/f50acce6bcc9db07b0d0720850badecf8b24efbca4debf78f5ac8213635d5cc7"
      },
      "encounter": {
        "reference": "Encounter/bf74a0c7e9c8d81b6c5282c278d15a140052250d1179784429bd420ab70f9f16"
      },
      "effectiveDateTime": "2020-04-10T15:47:00+00:00",
      "valueQuantity": {
        "value": 3.748536874979713,
        "unit": "mmol/L",
        "system": "http://unitsofmeasure.org",
        "code": "mmol/L"
      }
    },
    "request": {
      "method": "POST",
      "url": "Observation",
      "ifNoneExist": "identifier=https://mein.krankenhaus.de/fhir/NamingSystem/observationId|7c3e10c6b92e800b8d36ecdc7fc8cf99af8c480ee65c921fdac137ecb1ad0eaa"
    }
  }, {
    "fullUrl": "Observation/555b355e160cda47cd04595119ef243146a0dacc03c5eee55b9b9466f01016a4",
    "resource": {
      "resourceType": "Observation",
      "meta": {
        "profile": [ "https://www.medizininformatik-initiative.de/fhir/core/modul-labor/StructureDefinition/ObservationLab" ]
      },
      "identifier": [ {
        "type": {
          "coding": [ {
            "system": "http://terminology.hl7.org/CodeSystem/v2-0203",
            "code": "OBI",
            "display": "Observation Instance Identifier"
          } ]
        },
        "system": "https://mein.krankenhaus.de/fhir/NamingSystem/observationId",
        "value": "0cd3aff01552d1a75116e54d577ff327482cfbc0f0368cc5552950af286c3d06",
        "assigner": {
          "reference": "Organization/3a4f3433bce81181bad2d8e0b8fafccf7dc800bc06f29be73dcb38b750a48f9a"
        }
      } ],
      "status": "final",
      "category": [ {
        "coding": [ {
          "system": "http://terminology.hl7.org/CodeSystem/observation-category",
          "code": "laboratory",
          "display": "Laboratory"
        }, {
          "system": "http://loinc.org",
          "code": "26436-6"
        } ]
      } ],
      "code": {
        "coding": [ {
          "system": "http://loinc.org",
          "code": "12190-5",
          "display": "creatinine-in-body-fluid"
        } ],
        "text": "kreatinin"
      },
      "subject": {
        "reference": "Patient/f50acce6bcc9db07b0d0720850badecf8b24efbca4debf78f5ac8213635d5cc7"
      },
      "encounter": {
        "reference": "Encounter/bf74a0c7e9c8d81b6c5282c278d15a140052250d1179784429bd420ab70f9f16"
      },
      "effectiveDateTime": "2020-04-10T15:47:00+00:00",
      "valueQuantity": {
        "value": 25.1465181270501,
        "unit": "mg/L",
        "system": "http://unitsofmeasure.org",
        "code": "mg/L"
      }
    },
    "request": {
      "method": "POST",
      "url": "Observation",
      "ifNoneExist": "identifier=https://mein.krankenhaus.de/fhir/NamingSystem/observationId|555b355e160cda47cd04595119ef243146a0dacc03c5eee55b9b9466f01016a4"
    }
  }, {
    "fullUrl": "Observation/61104e87846eff08eda119a7fadd71edade9258aaf125b1789cd224eabde54f9",
    "resource": {
      "resourceType": "Observation",
      "meta": {
        "profile": [ "https://www.medizininformatik-initiative.de/fhir/core/modul-labor/StructureDefinition/ObservationLab" ]
      },
      "identifier": [ {
        "type": {
          "coding": [ {
            "system": "http://terminology.hl7.org/CodeSystem/v2-0203",
            "code": "OBI",
            "display": "Observation Instance Identifier"
          } ]
        },
        "system": "https://mein.krankenhaus.de/fhir/NamingSystem/observationId",
        "value": "1145b66ddb761067477dbf91c464c37a76edf0c2a500c5fb9fafc428aac0c943",
        "assigner": {
          "reference": "Organization/3a4f3433bce81181bad2d8e0b8fafccf7dc800bc06f29be73dcb38b750a48f9a"
        }
      } ],
      "status": "final",
      "category": [ {
        "coding": [ {
          "system": "http://terminology.hl7.org/CodeSystem/observation-category",
          "code": "laboratory",
          "display": "Laboratory"
        }, {
          "system": "http://loinc.org",
          "code": "26436-6"
        } ]
      } ],
      "code": {
        "coding": [ {
          "system": "http://loinc.org",
          "code": "19240-1",
          "display": "lactate-in-mixed-venous-blood"
        } ],
        "text": "laktat"
      },
      "subject": {
        "reference": "Patient/f50acce6bcc9db07b0d0720850badecf8b24efbca4debf78f5ac8213635d5cc7"
      },
      "encounter": {
        "reference": "Encounter/bf74a0c7e9c8d81b6c5282c278d15a140052250d1179784429bd420ab70f9f16"
      },
      "effectiveDateTime": "2020-04-10T15:47:00+00:00",
      "valueQuantity": {
        "value": 75.82728564451328,
        "unit": "mmol/L",
        "system": "http://unitsofmeasure.org",
        "code": "mmol/L"
      }
    },
    "request": {
      "method": "POST",
      "url": "Observation",
      "ifNoneExist": "identifier=https://mein.krankenhaus.de/fhir/NamingSystem/observationId|61104e87846eff08eda119a7fadd71edade9258aaf125b1789cd224eabde54f9"
    }
  }, {
    "fullUrl": "Observation/71fc85e2dceb0c933aad2d3f30a83e9080b370ce77b33637e9ae52ec852000ad",
    "resource": {
      "resourceType": "Observation",
      "meta": {
        "profile": [ "https://www.medizininformatik-initiative.de/fhir/core/modul-labor/StructureDefinition/ObservationLab" ]
      },
      "identifier": [ {
        "type": {
          "coding": [ {
            "system": "http://terminology.hl7.org/CodeSystem/v2-0203",
            "code": "OBI",
            "display": "Observation Instance Identifier"
          } ]
        },
        "system": "https://mein.krankenhaus.de/fhir/NamingSystem/observationId",
        "value": "58b961bc765b3c3faa86dd8c0ba8206924d3df1dd0a5f7ba2b0aaca37250e841",
        "assigner": {
          "reference": "Organization/3a4f3433bce81181bad2d8e0b8fafccf7dc800bc06f29be73dcb38b750a48f9a"
        }
      } ],
      "status": "final",
      "category": [ {
        "coding": [ {
          "system": "http://terminology.hl7.org/CodeSystem/observation-category",
          "code": "laboratory",
          "display": "Laboratory"
        }, {
          "system": "http://loinc.org",
          "code": "26436-6"
        } ]
      } ],
      "code": {
        "coding": [ {
          "system": "http://loinc.org",
          "code": "49498-9",
          "display": "leukocytes-in-blood-by-estimate"
        } ],
        "text": "leukozyten_absolut"
      },
      "subject": {
        "reference": "Patient/f50acce6bcc9db07b0d0720850badecf8b24efbca4debf78f5ac8213635d5cc7"
      },
      "encounter": {
        "reference": "Encounter/bf74a0c7e9c8d81b6c5282c278d15a140052250d1179784429bd420ab70f9f16"
      },
      "effectiveDateTime": "2020-04-10T15:47:00+00:00",
      "valueQuantity": {
        "value": 74.81214925508559,
        "unit": "10*3/uL",
        "system": "http://unitsofmeasure.org",
        "code": "10*3/uL"
      }
    },
    "request": {
      "method": "POST",
      "url": "Observation",
      "ifNoneExist": "identifier=https://mein.krankenhaus.de/fhir/NamingSystem/observationId|71fc85e2dceb0c933aad2d3f30a83e9080b370ce77b33637e9ae52ec852000ad"
    }
  }, {
    "fullUrl": "Observation/ca4c68353f4cf6dab5675e2e4d8fab3d11cebf7709b00c76f13d496e02fa7aff",
    "resource": {
      "resourceType": "Observation",
      "meta": {
        "profile": [ "https://www.medizininformatik-initiative.de/fhir/core/modul-labor/StructureDefinition/ObservationLab" ]
      },
      "identifier": [ {
        "type": {
          "coding": [ {
            "system": "http://terminology.hl7.org/CodeSystem/v2-0203",
            "code": "OBI",
            "display": "Observation Instance Identifier"
          } ]
        },
        "system": "https://mein.krankenhaus.de/fhir/NamingSystem/observationId",
        "value": "2c8b7762d3a0c1c0cd86da6916748e4c3583e009bf90dc346336cd9c78dc806f",
        "assigner": {
          "reference": "Organization/3a4f3433bce81181bad2d8e0b8fafccf7dc800bc06f29be73dcb38b750a48f9a"
        }
      } ],
      "status": "final",
      "category": [ {
        "coding": [ {
          "system": "http://terminology.hl7.org/CodeSystem/observation-category",
          "code": "laboratory",
          "display": "Laboratory"
        }, {
          "system": "http://loinc.org",
          "code": "26436-6"
        } ]
      } ],
      "code": {
        "coding": [ {
          "system": "http://loinc.org",
          "code": "731-0",
          "display": "lymphocytes-in-blood-by-automated-count"
        } ],
        "text": "lymphozyten_absolut"
      },
      "subject": {
        "reference": "Patient/f50acce6bcc9db07b0d0720850badecf8b24efbca4debf78f5ac8213635d5cc7"
      },
      "encounter": {
        "reference": "Encounter/bf74a0c7e9c8d81b6c5282c278d15a140052250d1179784429bd420ab70f9f16"
      },
      "effectiveDateTime": "2020-04-10T15:47:00+00:00",
      "valueQuantity": {
        "value": 8.363999641733777,
        "unit": "10*3/uL",
        "system": "http://unitsofmeasure.org",
        "code": "10*3/uL"
      }
    },
    "request": {
      "method": "POST",
      "url": "Observation",
      "ifNoneExist": "identifier=https://mein.krankenhaus.de/fhir/NamingSystem/observationId|ca4c68353f4cf6dab5675e2e4d8fab3d11cebf7709b00c76f13d496e02fa7aff"
    }
  }, {
    "fullUrl": "Observation/5bf47ed8adc12a3a118a566f7d7057f4b93dc426c06c82a5886d415cb73d6df8",
    "resource": {
      "resourceType": "Observation",
      "meta": {
        "profile": [ "https://www.medizininformatik-initiative.de/fhir/core/modul-labor/StructureDefinition/ObservationLab" ]
      },
      "identifier": [ {
        "type": {
          "coding": [ {
            "system": "http://terminology.hl7.org/CodeSystem/v2-0203",
            "code": "OBI",
            "display": "Observation Instance Identifier"
          } ]
        },
        "system": "https://mein.krankenhaus.de/fhir/NamingSystem/observationId",
        "value": "ccdb6dcdad753dd7ec6d9c8b5c4bd22acbfe1d7aecbd654c03c4cfa3993f2362",
        "assigner": {
          "reference": "Organization/3a4f3433bce81181bad2d8e0b8fafccf7dc800bc06f29be73dcb38b750a48f9a"
        }
      } ],
      "status": "final",
      "category": [ {
        "coding": [ {
          "system": "http://terminology.hl7.org/CodeSystem/observation-category",
          "code": "laboratory",
          "display": "Laboratory"
        }, {
          "system": "http://loinc.org",
          "code": "26436-6"
        } ]
      } ],
      "code": {
        "coding": [ {
          "system": "http://loinc.org",
          "code": "753-4",
          "display": "neutrophils-in-blood-by-manual-count"
        } ],
        "text": "neutrophile_absolut"
      },
      "subject": {
        "reference": "Patient/f50acce6bcc9db07b0d0720850badecf8b24efbca4debf78f5ac8213635d5cc7"
      },
      "encounter": {
        "reference": "Encounter/bf74a0c7e9c8d81b6c5282c278d15a140052250d1179784429bd420ab70f9f16"
      },
      "effectiveDateTime": "2020-04-10T15:47:00+00:00",
      "valueQuantity": {
        "value": 10.260197193116916,
        "unit": "10*3/uL",
        "system": "http://unitsofmeasure.org",
        "code": "10*3/uL"
      }
    },
    "request": {
      "method": "POST",
      "url": "Observation",
      "ifNoneExist": "identifier=https://mein.krankenhaus.de/fhir/NamingSystem/observationId|5bf47ed8adc12a3a118a566f7d7057f4b93dc426c06c82a5886d415cb73d6df8"
    }
  }, {
    "fullUrl": "Observation/900db648639543debd79fc2033902b5f542371883ccdc63beeb2dfa02ab997db",
    "resource": {
      "resourceType": "Observation",
      "meta": {
        "profile": [ "https://www.medizininformatik-initiative.de/fhir/core/modul-labor/StructureDefinition/ObservationLab" ]
      },
      "identifier": [ {
        "type": {
          "coding": [ {
            "system": "http://terminology.hl7.org/CodeSystem/v2-0203",
            "code": "OBI",
            "display": "Observation Instance Identifier"
          } ]
        },
        "system": "https://mein.krankenhaus.de/fhir/NamingSystem/observationId",
        "value": "69a2ec53a2037d7b117bfc2ee66d04260a47281ce779cfa4d9a0476ed28a5cb9",
        "assigner": {
          "reference": "Organization/3a4f3433bce81181bad2d8e0b8fafccf7dc800bc06f29be73dcb38b750a48f9a"
        }
      } ],
      "status": "final",
      "category": [ {
        "coding": [ {
          "system": "http://terminology.hl7.org/CodeSystem/observation-category",
          "code": "laboratory",
          "display": "Laboratory"
        }, {
          "system": "http://loinc.org",
          "code": "26436-6"
        } ]
      } ],
      "code": {
        "coding": [ {
          "system": "http://loinc.org",
          "code": "43734-3",
          "display": "aptt-in-platelet-poor-plasma-by-coagulation-11-saline"
        } ],
        "text": "ptt"
      },
      "subject": {
        "reference": "Patient/f50acce6bcc9db07b0d0720850badecf8b24efbca4debf78f5ac8213635d5cc7"
      },
      "encounter": {
        "reference": "Encounter/bf74a0c7e9c8d81b6c5282c278d15a140052250d1179784429bd420ab70f9f16"
      },
      "effectiveDateTime": "2020-04-10T15:47:00+00:00",
      "valueQuantity": {
        "value": 2.583947677430176,
        "unit": "s",
        "system": "http://unitsofmeasure.org",
        "code": "s"
      }
    },
    "request": {
      "method": "POST",
      "url": "Observation",
      "ifNoneExist": "identifier=https://mein.krankenhaus.de/fhir/NamingSystem/observationId|900db648639543debd79fc2033902b5f542371883ccdc63beeb2dfa02ab997db"
    }
  }, {
    "fullUrl": "Observation/1713ad3e96fe5a7e52ab3790b277fbfc011571edd8dc4191cb4c00447866118e",
    "resource": {
      "resourceType": "Observation",
      "meta": {
        "profile": [ "https://www.medizininformatik-initiative.de/fhir/core/modul-labor/StructureDefinition/ObservationLab" ]
      },
      "identifier": [ {
        "type": {
          "coding": [ {
            "system": "http://terminology.hl7.org/CodeSystem/v2-0203",
            "code": "OBI",
            "display": "Observation Instance Identifier"
          } ]
        },
        "system": "https://mein.krankenhaus.de/fhir/NamingSystem/observationId",
        "value": "ca05211ff77be8325e503de606b9934886c7b4d7848c9f6e36262b1738dfb70d",
        "assigner": {
          "reference": "Organization/3a4f3433bce81181bad2d8e0b8fafccf7dc800bc06f29be73dcb38b750a48f9a"
        }
      } ],
      "status": "final",
      "category": [ {
        "coding": [ {
          "system": "http://terminology.hl7.org/CodeSystem/observation-category",
          "code": "laboratory",
          "display": "Laboratory"
        }, {
          "system": "http://loinc.org",
          "code": "26436-6"
        } ]
      } ],
      "code": {
        "coding": [ {
          "system": "http://loinc.org",
          "code": "26515-7",
          "display": "platelets-in-blood"
        } ],
        "text": "thrombozyten_absolut"
      },
      "subject": {
        "reference": "Patient/f50acce6bcc9db07b0d0720850badecf8b24efbca4debf78f5ac8213635d5cc7"
      },
      "encounter": {
        "reference": "Encounter/bf74a0c7e9c8d81b6c5282c278d15a140052250d1179784429bd420ab70f9f16"
      },
      "effectiveDateTime": "2020-04-10T15:47:00+00:00",
      "valueQuantity": {
        "value": 43.9328472061733,
        "unit": "10*3/uL",
        "system": "http://unitsofmeasure.org",
        "code": "10*3/uL"
      }
    },
    "request": {
      "method": "POST",
      "url": "Observation",
      "ifNoneExist": "identifier=https://mein.krankenhaus.de/fhir/NamingSystem/observationId|1713ad3e96fe5a7e52ab3790b277fbfc011571edd8dc4191cb4c00447866118e"
    }
  }, {
    "fullUrl": "Observation/ec43f15717a2b5729524cb27b9be58b95a9188253b78a42589500a2fa848c596",
    "resource": {
      "resourceType": "Observation",
      "meta": {
        "profile": [ "https://www.medizininformatik-initiative.de/fhir/core/modul-labor/StructureDefinition/ObservationLab" ]
      },
      "identifier": [ {
        "type": {
          "coding": [ {
            "system": "http://terminology.hl7.org/CodeSystem/v2-0203",
            "code": "OBI",
            "display": "Observation Instance Identifier"
          } ]
        },
        "system": "https://mein.krankenhaus.de/fhir/NamingSystem/observationId",
        "value": "7cae07cea24d82877306429d1578f16c6e5c8dbfb14ea7b8f3efa716ea4486cb",
        "assigner": {
          "reference": "Organization/3a4f3433bce81181bad2d8e0b8fafccf7dc800bc06f29be73dcb38b750a48f9a"
        }
      } ],
      "status": "final",
      "category": [ {
        "coding": [ {
          "system": "http://terminology.hl7.org/CodeSystem/observation-category",
          "code": "laboratory",
          "display": "Laboratory"
        }, {
          "system": "http://loinc.org",
          "code": "26436-6"
        } ]
      } ],
      "code": {
        "coding": [ {
          "system": "http://loinc.org",
          "code": "34714-6",
          "display": "inr-in-blood-by-coagulation-assay"
        } ],
        "text": "inr"
      },
      "subject": {
        "reference": "Patient/f50acce6bcc9db07b0d0720850badecf8b24efbca4debf78f5ac8213635d5cc7"
      },
      "encounter": {
        "reference": "Encounter/bf74a0c7e9c8d81b6c5282c278d15a140052250d1179784429bd420ab70f9f16"
      },
      "effectiveDateTime": "2020-04-10T15:47:00+00:00",
      "valueQuantity": {
        "value": 40.94236535815512,
        "unit": "{INR}",
        "system": "http://unitsofmeasure.org",
        "code": "{INR}"
      }
    },
    "request": {
      "method": "POST",
      "url": "Observation",
      "ifNoneExist": "identifier=https://mein.krankenhaus.de/fhir/NamingSystem/observationId|ec43f15717a2b5729524cb27b9be58b95a9188253b78a42589500a2fa848c596"
    }
  }, {
    "fullUrl": "Observation/99ecc1c9f248d73d7dd33c435a42b3e31dc7134550027b97cca858e9e99db420",
    "resource": {
      "resourceType": "Observation",
      "meta": {
        "profile": [ "https://www.medizininformatik-initiative.de/fhir/core/modul-labor/StructureDefinition/ObservationLab" ]
      },
      "identifier": [ {
        "type": {
          "coding": [ {
            "system": "http://terminology.hl7.org/CodeSystem/v2-0203",
            "code": "OBI",
            "display": "Observation Instance Identifier"
          } ]
        },
        "system": "https://mein.krankenhaus.de/fhir/NamingSystem/observationId",
        "value": "73da6560a9e3f226d9f80b277df8e16caa9db8b96764b3b1ff8cb7041ce648c2",
        "assigner": {
          "reference": "Organization/3a4f3433bce81181bad2d8e0b8fafccf7dc800bc06f29be73dcb38b750a48f9a"
        }
      } ],
      "status": "final",
      "category": [ {
        "coding": [ {
          "system": "http://terminology.hl7.org/CodeSystem/observation-category",
          "code": "laboratory",
          "display": "Laboratory"
        }, {
          "system": "http://loinc.org",
          "code": "26436-6"
        } ]
      } ],
      "code": {
        "coding": [ {
          "system": "http://loinc.org",
          "code": "76631-1",
          "display": "albumin-in-blood-by-bromocresol-purple-bcp-dye-binding-method"
        } ],
        "text": "serumalbumin"
      },
      "subject": {
        "reference": "Patient/f50acce6bcc9db07b0d0720850badecf8b24efbca4debf78f5ac8213635d5cc7"
      },
      "encounter": {
        "reference": "Encounter/bf74a0c7e9c8d81b6c5282c278d15a140052250d1179784429bd420ab70f9f16"
      },
      "effectiveDateTime": "2020-04-10T15:47:00+00:00",
      "valueQuantity": {
        "value": 73.49606391257674,
        "unit": "g/L",
        "system": "http://unitsofmeasure.org",
        "code": "g/L"
      }
    },
    "request": {
      "method": "POST",
      "url": "Observation",
      "ifNoneExist": "identifier=https://mein.krankenhaus.de/fhir/NamingSystem/observationId|99ecc1c9f248d73d7dd33c435a42b3e31dc7134550027b97cca858e9e99db420"
    }
  }, {
    "fullUrl": "Observation/af84b7da69acec70cf035034eb9a72603b43816d5d67abfd95fc96385d2c933f",
    "resource": {
      "resourceType": "Observation",
      "meta": {
        "profile": [ "https://www.medizininformatik-initiative.de/fhir/core/modul-labor/StructureDefinition/ObservationLab" ]
      },
      "identifier": [ {
        "type": {
          "coding": [ {
            "system": "http://terminology.hl7.org/CodeSystem/v2-0203",
            "code": "OBI",
            "display": "Observation Instance Identifier"
          } ]
        },
        "system": "https://mein.krankenhaus.de/fhir/NamingSystem/observationId",
        "value": "dbb94bdc5a594a1c31ebe80fc97599703fb7e672a4044880b3c2245910c8c963",
        "assigner": {
          "reference": "Organization/3a4f3433bce81181bad2d8e0b8fafccf7dc800bc06f29be73dcb38b750a48f9a"
        }
      } ],
      "status": "final",
      "category": [ {
        "coding": [ {
          "system": "http://terminology.hl7.org/CodeSystem/observation-category",
          "code": "laboratory",
          "display": "Laboratory"
        }, {
          "system": "http://loinc.org",
          "code": "26436-6"
        } ]
      } ],
      "code": {
        "coding": [ {
          "system": "http://loinc.org",
          "code": "3174-0",
          "display": "antithrombin-in-platelet-poor-plasma-by-chromogenic-method"
        } ],
        "text": "antithrombin_iii"
      },
      "subject": {
        "reference": "Patient/f50acce6bcc9db07b0d0720850badecf8b24efbca4debf78f5ac8213635d5cc7"
      },
      "encounter": {
        "reference": "Encounter/bf74a0c7e9c8d81b6c5282c278d15a140052250d1179784429bd420ab70f9f16"
      },
      "effectiveDateTime": "2020-04-10T15:47:00+00:00",
      "valueQuantity": {
        "value": 86.8111406744483,
        "unit": "[IU]/mL",
        "system": "http://unitsofmeasure.org",
        "code": "[IU]/mL"
      }
    },
    "request": {
      "method": "POST",
      "url": "Observation",
      "ifNoneExist": "identifier=https://mein.krankenhaus.de/fhir/NamingSystem/observationId|af84b7da69acec70cf035034eb9a72603b43816d5d67abfd95fc96385d2c933f"
    }
  }, {
    "fullUrl": "Observation/8ed7fc3583640ab3ce9d235a695d6bdd69887a09a43f559ac39e6ef06fe27ded",
    "resource": {
      "resourceType": "Observation",
      "meta": {
        "profile": [ "https://www.medizininformatik-initiative.de/fhir/core/modul-labor/StructureDefinition/ObservationLab" ]
      },
      "identifier": [ {
        "type": {
          "coding": [ {
            "system": "http://terminology.hl7.org/CodeSystem/v2-0203",
            "code": "OBI",
            "display": "Observation Instance Identifier"
          } ]
        },
        "system": "https://mein.krankenhaus.de/fhir/NamingSystem/observationId",
        "value": "b2fa0fd0f5ea159bb6a12106a6b0b9082055ac23fa392240ac9cd4f52f2cca87",
        "assigner": {
          "reference": "Organization/3a4f3433bce81181bad2d8e0b8fafccf7dc800bc06f29be73dcb38b750a48f9a"
        }
      } ],
      "status": "final",
      "category": [ {
        "coding": [ {
          "system": "http://terminology.hl7.org/CodeSystem/observation-category",
          "code": "laboratory",
          "display": "Laboratory"
        }, {
          "system": "http://loinc.org",
          "code": "26436-6"
        } ]
      } ],
      "code": {
        "coding": [ {
          "system": "http://loinc.org",
          "code": "33959-8",
          "display": "procalcitonin-in-serum-or-plasma"
        } ],
        "text": "pct_procalcitonin"
      },
      "subject": {
        "reference": "Patient/f50acce6bcc9db07b0d0720850badecf8b24efbca4debf78f5ac8213635d5cc7"
      },
      "encounter": {
        "reference": "Encounter/bf74a0c7e9c8d81b6c5282c278d15a140052250d1179784429bd420ab70f9f16"
      },
      "effectiveDateTime": "2020-04-10T15:47:00+00:00",
      "valueQuantity": {
        "value": 42.441387692065376,
        "unit": "ng/mL",
        "system": "http://unitsofmeasure.org",
        "code": "ng/mL"
      }
    },
    "request": {
      "method": "POST",
      "url": "Observation",
      "ifNoneExist": "identifier=https://mein.krankenhaus.de/fhir/NamingSystem/observationId|8ed7fc3583640ab3ce9d235a695d6bdd69887a09a43f559ac39e6ef06fe27ded"
    }
  }, {
    "fullUrl": "Observation/fa9f3f4fe9ee984587708dbdc5dc4b2c3b8f403136ddf507c13f7724607ede56",
    "resource": {
      "resourceType": "Observation",
      "meta": {
        "profile": [ "https://www.medizininformatik-initiative.de/fhir/core/modul-labor/StructureDefinition/ObservationLab" ]
      },
      "identifier": [ {
        "type": {
          "coding": [ {
            "system": "http://terminology.hl7.org/CodeSystem/v2-0203",
            "code": "OBI",
            "display": "Observation Instance Identifier"
          } ]
        },
        "system": "https://mein.krankenhaus.de/fhir/NamingSystem/observationId",
        "value": "c16c5ab27020471029fe23f902bb73ae57fc15b639a2c4b7dfecda758a611f31",
        "assigner": {
          "reference": "Organization/3a4f3433bce81181bad2d8e0b8fafccf7dc800bc06f29be73dcb38b750a48f9a"
        }
      } ],
      "status": "final",
      "category": [ {
        "coding": [ {
          "system": "http://terminology.hl7.org/CodeSystem/observation-category",
          "code": "laboratory",
          "display": "Laboratory"
        }, {
          "system": "http://loinc.org",
          "code": "26436-6"
        } ]
      } ],
      "code": {
        "coding": [ {
          "system": "http://loinc.org",
          "code": "26881-3",
          "display": "interleukin-6-in-serum-or-plasma"
        } ],
        "text": "il6_interleukin_6"
      },
      "subject": {
        "reference": "Patient/f50acce6bcc9db07b0d0720850badecf8b24efbca4debf78f5ac8213635d5cc7"
      },
      "encounter": {
        "reference": "Encounter/bf74a0c7e9c8d81b6c5282c278d15a140052250d1179784429bd420ab70f9f16"
      },
      "effectiveDateTime": "2020-04-10T15:47:00+00:00",
      "valueQuantity": {
        "value": 15.713247191918978,
        "unit": "pg/mL",
        "system": "http://unitsofmeasure.org",
        "code": "pg/mL"
      }
    },
    "request": {
      "method": "POST",
      "url": "Observation",
      "ifNoneExist": "identifier=https://mein.krankenhaus.de/fhir/NamingSystem/observationId|fa9f3f4fe9ee984587708dbdc5dc4b2c3b8f403136ddf507c13f7724607ede56"
    }
  }, {
    "fullUrl": "Observation/a5a28032bfe492cbcd65eef9a680b9ab12f83c9c2feb6320b8ca172c482ef8f5",
    "resource": {
      "resourceType": "Observation",
      "meta": {
        "profile": [ "https://www.medizininformatik-initiative.de/fhir/core/modul-labor/StructureDefinition/ObservationLab" ]
      },
      "identifier": [ {
        "type": {
          "coding": [ {
            "system": "http://terminology.hl7.org/CodeSystem/v2-0203",
            "code": "OBI",
            "display": "Observation Instance Identifier"
          } ]
        },
        "system": "https://mein.krankenhaus.de/fhir/NamingSystem/observationId",
        "value": "3ac289adab10d1aed6159b835a78e6079a9007d99d1d85ee6ca465e145dd241b",
        "assigner": {
          "reference": "Organization/3a4f3433bce81181bad2d8e0b8fafccf7dc800bc06f29be73dcb38b750a48f9a"
        }
      } ],
      "status": "final",
      "category": [ {
        "coding": [ {
          "system": "http://terminology.hl7.org/CodeSystem/observation-category",
          "code": "laboratory",
          "display": "Laboratory"
        }, {
          "system": "http://loinc.org",
          "code": "26436-6"
        } ]
      } ],
      "code": {
        "coding": [ {
          "system": "http://loinc.org",
          "code": "33762-6",
          "display": "natriuretic-peptide.b-prohormone-n-terminal-in-serum-or-plasma"
        } ],
        "text": "ntprobnp"
      },
      "subject": {
        "reference": "Patient/f50acce6bcc9db07b0d0720850badecf8b24efbca4debf78f5ac8213635d5cc7"
      },
      "encounter": {
        "reference": "Encounter/bf74a0c7e9c8d81b6c5282c278d15a140052250d1179784429bd420ab70f9f16"
      },
      "effectiveDateTime": "2020-04-10T15:47:00+00:00",
      "valueQuantity": {
        "value": 2.0129814724128225,
        "unit": "pg/mL",
        "system": "http://unitsofmeasure.org",
        "code": "pg/mL"
      }
    },
    "request": {
      "method": "POST",
      "url": "Observation",
      "ifNoneExist": "identifier=https://mein.krankenhaus.de/fhir/NamingSystem/observationId|a5a28032bfe492cbcd65eef9a680b9ab12f83c9c2feb6320b8ca172c482ef8f5"
    }
  }, {
    "fullUrl": "Observation/441afa5c5cd52ed627995bf5aeeae42d21b5276204201b29cb2fee8a23b53625",
    "resource": {
      "resourceType": "Observation",
      "meta": {
        "profile": [ "https://www.medizininformatik-initiative.de/fhir/core/modul-labor/StructureDefinition/ObservationLab" ]
      },
      "identifier": [ {
        "type": {
          "coding": [ {
            "system": "http://terminology.hl7.org/CodeSystem/v2-0203",
            "code": "OBI",
            "display": "Observation Instance Identifier"
          } ]
        },
        "system": "https://mein.krankenhaus.de/fhir/NamingSystem/observationId",
        "value": "7bd1c6a8798b816ed49181df489fffb28e043815d6e464122635a9e6971b065a",
        "assigner": {
          "reference": "Organization/3a4f3433bce81181bad2d8e0b8fafccf7dc800bc06f29be73dcb38b750a48f9a"
        }
      } ],
      "status": "final",
      "category": [ {
        "coding": [ {
          "system": "http://terminology.hl7.org/CodeSystem/observation-category",
          "code": "laboratory",
          "display": "Laboratory"
        }, {
          "system": "http://loinc.org",
          "code": "26436-6"
        } ]
      } ],
      "code": {
        "coding": [ {
          "system": "http://loinc.org",
          "code": "48664-7",
          "display": "fibrinogen-in-platelet-poor-plasma-by-coagulation.derived"
        } ],
        "text": "fibrinogen"
      },
      "subject": {
        "reference": "Patient/f50acce6bcc9db07b0d0720850badecf8b24efbca4debf78f5ac8213635d5cc7"
      },
      "encounter": {
        "reference": "Encounter/bf74a0c7e9c8d81b6c5282c278d15a140052250d1179784429bd420ab70f9f16"
      },
      "effectiveDateTime": "2020-04-10T15:47:00+00:00",
      "valueQuantity": {
        "value": 26.452607349246804,
        "unit": "g/L",
        "system": "http://unitsofmeasure.org",
        "code": "g/L"
      }
    },
    "request": {
      "method": "POST",
      "url": "Observation",
      "ifNoneExist": "identifier=https://mein.krankenhaus.de/fhir/NamingSystem/observationId|441afa5c5cd52ed627995bf5aeeae42d21b5276204201b29cb2fee8a23b53625"
    }
  }, {
    "fullUrl": "Observation/54033126446a294aff0c58ace388a94ffc8067e33b406055a719099a3bb25dca",
    "resource": {
      "resourceType": "Observation",
      "meta": {
        "profile": [ "https://www.netzwerk-universitaetsmedizin.de/fhir/StructureDefinition/sars-cov-2-rt-pcr" ]
      },
      "identifier": [ {
        "type": {
          "coding": [ {
            "system": "http://terminology.hl7.org/CodeSystem/v2-0203",
            "code": "OBI",
            "display": "Observation Instance Identifier"
          } ]
        },
        "system": "https://mein.krankenhaus.de/fhir/NamingSystem/observationId",
        "value": "63bd967a8f22f34e52d85125e1611e7c002874cf8b9fbe920e8e657755c6badf",
        "assigner": {
          "reference": "Organization/3a4f3433bce81181bad2d8e0b8fafccf7dc800bc06f29be73dcb38b750a48f9a"
        }
      } ],
      "status": "final",
      "category": [ {
        "coding": [ {
          "system": "http://terminology.hl7.org/CodeSystem/observation-category",
          "code": "laboratory",
          "display": "Laboratory"
        }, {
          "system": "http://loinc.org",
          "code": "26436-6"
        } ]
      } ],
      "code": {
        "coding": [ {
          "system": "http://loinc.org",
          "code": "94500-6",
          "display": "sars-cov-2-covid-19-rna-in-respiratory-specimen-by-naa-with-probe-detection"
        } ],
        "text": "SARS-CoV-2-RNA (PCR)"
      },
      "subject": {
        "reference": "Patient/f50acce6bcc9db07b0d0720850badecf8b24efbca4debf78f5ac8213635d5cc7"
      },
      "encounter": {
        "reference": "Encounter/bf74a0c7e9c8d81b6c5282c278d15a140052250d1179784429bd420ab70f9f16"
      },
      "effectiveDateTime": "2020-04-10T15:47:00+00:00",
      "valueCodeableConcept": {
        "coding": [ {
          "system": "http://snomed.info/sct",
          "code": "260373001",
          "display": "Detected (qualifier value)"
        } ],
        "text": "SARS-CoV-2-RNA positiv"
      }
    },
    "request": {
      "method": "POST",
      "url": "Observation",
      "ifNoneExist": "identifier=https://mein.krankenhaus.de/fhir/NamingSystem/observationId|54033126446a294aff0c58ace388a94ffc8067e33b406055a719099a3bb25dca"
    }
  }, {
    "fullUrl": "Observation/4bd70cb0d85dc3e683f80c55cc9ace8de1f42f4273b1153840d66b0f0eef48d3",
    "resource": {
      "resourceType": "Observation",
      "meta": {
        "profile": [ "https://www.netzwerk-universitaetsmedizin.de/fhir/StructureDefinition/sars-cov-2-ab-pnl-ser-pl-ia" ]
      },
      "identifier": [ {
        "type": {
          "coding": [ {
            "system": "http://terminology.hl7.org/CodeSystem/v2-0203",
            "code": "OBI",
            "display": "Observation Instance Identifier"
          } ]
        },
        "system": "https://mein.krankenhaus.de/fhir/NamingSystem/observationId",
        "value": "eb4d9142ff017680f8e971f31ba63cb7d104ac3ba46f0cf27ab884105de532d5",
        "assigner": {
          "reference": "Organization/3a4f3433bce81181bad2d8e0b8fafccf7dc800bc06f29be73dcb38b750a48f9a"
        }
      } ],
      "status": "final",
      "category": [ {
        "coding": [ {
          "system": "http://terminology.hl7.org/CodeSystem/observation-category",
          "code": "laboratory",
          "display": "Laboratory"
        }, {
          "system": "http://loinc.org",
          "code": "26436-6"
        } ]
      } ],
      "code": {
        "coding": [ {
          "system": "http://loinc.org",
          "code": "94504-8"
        } ],
        "text": "sarsco_v2_covid19_ab_pnl"
      },
      "subject": {
        "reference": "Patient/f50acce6bcc9db07b0d0720850badecf8b24efbca4debf78f5ac8213635d5cc7"
      },
      "encounter": {
        "reference": "Encounter/bf74a0c7e9c8d81b6c5282c278d15a140052250d1179784429bd420ab70f9f16"
      },
      "effectiveDateTime": "2020-04-10T15:47:00+00:00",
      "hasMember": [ {
        "reference": "Observation/4d9ed22380d6b5ad96045335734ff4e9628ef85011fa707661986bacc9a46e58"
      }, {
        "reference": "Observation/ceaccf5c24f27fd3f06e09097b77a5835bb311f75ba7de7899729b3240a22579"
      }, {
        "reference": "Observation/69127d3958043acee1cc52c0c643e5f6418786f4499073dc5d7d55c7abb9e092"
      }, {
        "reference": "Observation/56a095ed5c7cedb3bcb5f601c60c2851b44c39426452e4a02876c714bc6fa6d4"
      }, {
        "reference": "Observation/499feadc0c2d4a8440cbb2c4700e14d01ba8a4b35fa42fd638a7433df81ad170"
      }, {
        "reference": "Observation/4889046c4ea3e2b48ad7050ab5ef00aba78f38599ada406e3e72da1899139e39"
      }, {
        "reference": "Observation/e089ec7b0d5d15a12da9e6feb4642fdcb40b84d2a5119d962ab211ad95650bdf"
      }, {
        "reference": "Observation/bbec2764a2a9fbd2e5f54e786f5bf7b37c72ac9a1df0c3c2ba115baa60d125d5"
      } ]
    },
    "request": {
      "method": "POST",
      "url": "Observation",
      "ifNoneExist": "identifier=https://mein.krankenhaus.de/fhir/NamingSystem/observationId|4bd70cb0d85dc3e683f80c55cc9ace8de1f42f4273b1153840d66b0f0eef48d3"
    }
  }, {
    "fullUrl": "Observation/4d9ed22380d6b5ad96045335734ff4e9628ef85011fa707661986bacc9a46e58",
    "resource": {
      "resourceType": "Observation",
      "meta": {
        "profile": [ "https://www.netzwerk-universitaetsmedizin.de/fhir/StructureDefinition/sars-cov-2-ab-ser-pl-ql-ia" ]
      },
      "identifier": [ {
        "type": {
          "coding": [ {
            "system": "http://terminology.hl7.org/CodeSystem/v2-0203",
            "code": "OBI",
            "display": "Observation Instance Identifier"
          } ]
        },
        "system": "https://mein.krankenhaus.de/fhir/NamingSystem/observationId",
        "value": "09ed0906d28111cac9ee3ea7620dbdb04f55da0e88d5a3a19dc6e74d45271f9d",
        "assigner": {
          "reference": "Organization/3a4f3433bce81181bad2d8e0b8fafccf7dc800bc06f29be73dcb38b750a48f9a"
        }
      } ],
      "status": "final",
      "category": [ {
        "coding": [ {
          "system": "http://terminology.hl7.org/CodeSystem/observation-category",
          "code": "laboratory",
          "display": "Laboratory"
        }, {
          "system": "http://loinc.org",
          "code": "26436-6"
        } ]
      } ],
      "code": {
        "coding": [ {
          "system": "http://loinc.org",
          "code": "94762-2",
          "display": "sars-cov-2-covid-19-ab-in-serum-or-plasma-by-immunoassay"
        } ],
        "text": "sarsco_v2_covid19_ab_ia_ql"
      },
      "subject": {
        "reference": "Patient/f50acce6bcc9db07b0d0720850badecf8b24efbca4debf78f5ac8213635d5cc7"
      },
      "encounter": {
        "reference": "Encounter/bf74a0c7e9c8d81b6c5282c278d15a140052250d1179784429bd420ab70f9f16"
      },
      "effectiveDateTime": "2020-04-10T15:47:00+00:00",
      "valueCodeableConcept": {
        "coding": [ {
          "system": "http://snomed.info/sct",
          "code": "260373001"
        } ]
      }
    },
    "request": {
      "method": "POST",
      "url": "Observation",
      "ifNoneExist": "identifier=https://mein.krankenhaus.de/fhir/NamingSystem/observationId|4d9ed22380d6b5ad96045335734ff4e9628ef85011fa707661986bacc9a46e58"
    }
  }, {
    "fullUrl": "Observation/ceaccf5c24f27fd3f06e09097b77a5835bb311f75ba7de7899729b3240a22579",
    "resource": {
      "resourceType": "Observation",
      "meta": {
        "profile": [ "https://www.netzwerk-universitaetsmedizin.de/fhir/StructureDefinition/sars-cov-2-ab-ser-pl-ia-acnc" ]
      },
      "identifier": [ {
        "type": {
          "coding": [ {
            "system": "http://terminology.hl7.org/CodeSystem/v2-0203",
            "code": "OBI",
            "display": "Observation Instance Identifier"
          } ]
        },
        "system": "https://mein.krankenhaus.de/fhir/NamingSystem/observationId",
        "value": "afac73474cf049fc7873c407ee4d5c4625b145536b8750ccbb812093ae1f7413",
        "assigner": {
          "reference": "Organization/3a4f3433bce81181bad2d8e0b8fafccf7dc800bc06f29be73dcb38b750a48f9a"
        }
      } ],
      "status": "final",
      "category": [ {
        "coding": [ {
          "system": "http://terminology.hl7.org/CodeSystem/observation-category",
          "code": "laboratory",
          "display": "Laboratory"
        }, {
          "system": "http://loinc.org",
          "code": "26436-6"
        } ]
      } ],
      "code": {
        "coding": [ {
          "system": "http://loinc.org",
          "code": "94769-7",
          "display": "sars-cov-2-covid-19-ab-in-serum-or-plasma-by-immunoassay"
        } ],
        "text": "sarsco_v2_covid19_ab_ia_qn"
      },
      "subject": {
        "reference": "Patient/f50acce6bcc9db07b0d0720850badecf8b24efbca4debf78f5ac8213635d5cc7"
      },
      "encounter": {
        "reference": "Encounter/bf74a0c7e9c8d81b6c5282c278d15a140052250d1179784429bd420ab70f9f16"
      },
      "effectiveDateTime": "2020-04-10T15:47:00+00:00",
      "valueQuantity": {
        "value": 78.5107316852532,
        "unit": "[IU]/mL",
        "system": "http://unitsofmeasure.org",
        "code": "[IU]/mL"
      }
    },
    "request": {
      "method": "POST",
      "url": "Observation",
      "ifNoneExist": "identifier=https://mein.krankenhaus.de/fhir/NamingSystem/observationId|ceaccf5c24f27fd3f06e09097b77a5835bb311f75ba7de7899729b3240a22579"
    }
  }, {
    "fullUrl": "Observation/69127d3958043acee1cc52c0c643e5f6418786f4499073dc5d7d55c7abb9e092",
    "resource": {
      "resourceType": "Observation",
      "meta": {
        "profile": [ "https://www.netzwerk-universitaetsmedizin.de/fhir/StructureDefinition/sars-cov-2-iga-ser-pl-ql-ia" ]
      },
      "identifier": [ {
        "type": {
          "coding": [ {
            "system": "http://terminology.hl7.org/CodeSystem/v2-0203",
            "code": "OBI",
            "display": "Observation Instance Identifier"
          } ]
        },
        "system": "https://mein.krankenhaus.de/fhir/NamingSystem/observationId",
        "value": "29435ec81312e8079a1c7b9440a4c20ecc1ed13934c8ae3d20e0e938a882024f",
        "assigner": {
          "reference": "Organization/3a4f3433bce81181bad2d8e0b8fafccf7dc800bc06f29be73dcb38b750a48f9a"
        }
      } ],
      "status": "final",
      "category": [ {
        "coding": [ {
          "system": "http://terminology.hl7.org/CodeSystem/observation-category",
          "code": "laboratory",
          "display": "Laboratory"
        }, {
          "system": "http://loinc.org",
          "code": "26436-6"
        } ]
      } ],
      "code": {
        "coding": [ {
          "system": "http://loinc.org",
          "code": "94562-6",
          "display": "sars-cov-2-covid-19-iga-ab-in-serum-or-plasma-by-immunoassay"
        } ],
        "text": "sarsco_v2_covid19_ig_a_ia_ql"
      },
      "subject": {
        "reference": "Patient/f50acce6bcc9db07b0d0720850badecf8b24efbca4debf78f5ac8213635d5cc7"
      },
      "encounter": {
        "reference": "Encounter/bf74a0c7e9c8d81b6c5282c278d15a140052250d1179784429bd420ab70f9f16"
      },
      "effectiveDateTime": "2020-04-10T15:47:00+00:00",
      "valueCodeableConcept": {
        "coding": [ {
          "system": "http://snomed.info/sct",
          "code": "419984006"
        } ]
      }
    },
    "request": {
      "method": "POST",
      "url": "Observation",
      "ifNoneExist": "identifier=https://mein.krankenhaus.de/fhir/NamingSystem/observationId|69127d3958043acee1cc52c0c643e5f6418786f4499073dc5d7d55c7abb9e092"
    }
  }, {
    "fullUrl": "Observation/56a095ed5c7cedb3bcb5f601c60c2851b44c39426452e4a02876c714bc6fa6d4",
    "resource": {
      "resourceType": "Observation",
      "meta": {
        "profile": [ "https://www.netzwerk-universitaetsmedizin.de/fhir/StructureDefinition/sars-cov-2-iga-ser-pl-ia-acnc" ]
      },
      "identifier": [ {
        "type": {
          "coding": [ {
            "system": "http://terminology.hl7.org/CodeSystem/v2-0203",
            "code": "OBI",
            "display": "Observation Instance Identifier"
          } ]
        },
        "system": "https://mein.krankenhaus.de/fhir/NamingSystem/observationId",
        "value": "b965602e49ab67441b73021acf74ae908e260e6017009cf929bda950e3e64ff4",
        "assigner": {
          "reference": "Organization/3a4f3433bce81181bad2d8e0b8fafccf7dc800bc06f29be73dcb38b750a48f9a"
        }
      } ],
      "status": "final",
      "category": [ {
        "coding": [ {
          "system": "http://terminology.hl7.org/CodeSystem/observation-category",
          "code": "laboratory",
          "display": "Laboratory"
        }, {
          "system": "http://loinc.org",
          "code": "26436-6"
        } ]
      } ],
      "code": {
        "coding": [ {
          "system": "http://loinc.org",
          "code": "94720-0",
          "display": "sars-cov-2-covid-19-iga-ab-in-serum-or-plasma-by-immunoassay"
        } ],
        "text": "sarsco_v2_covid19_ig_a_ia_qn"
      },
      "subject": {
        "reference": "Patient/f50acce6bcc9db07b0d0720850badecf8b24efbca4debf78f5ac8213635d5cc7"
      },
      "encounter": {
        "reference": "Encounter/bf74a0c7e9c8d81b6c5282c278d15a140052250d1179784429bd420ab70f9f16"
      },
      "effectiveDateTime": "2020-04-10T15:47:00+00:00",
      "valueQuantity": {
        "value": 84.39851961190303,
        "unit": "[IU]/mL",
        "system": "http://unitsofmeasure.org",
        "code": "[IU]/mL"
      }
    },
    "request": {
      "method": "POST",
      "url": "Observation",
      "ifNoneExist": "identifier=https://mein.krankenhaus.de/fhir/NamingSystem/observationId|56a095ed5c7cedb3bcb5f601c60c2851b44c39426452e4a02876c714bc6fa6d4"
    }
  }, {
    "fullUrl": "Observation/499feadc0c2d4a8440cbb2c4700e14d01ba8a4b35fa42fd638a7433df81ad170",
    "resource": {
      "resourceType": "Observation",
      "meta": {
        "profile": [ "https://www.netzwerk-universitaetsmedizin.de/fhir/StructureDefinition/sars-cov-2-igg-ser-pl-ql-ia" ]
      },
      "identifier": [ {
        "type": {
          "coding": [ {
            "system": "http://terminology.hl7.org/CodeSystem/v2-0203",
            "code": "OBI",
            "display": "Observation Instance Identifier"
          } ]
        },
        "system": "https://mein.krankenhaus.de/fhir/NamingSystem/observationId",
        "value": "cd5531bf38f3652918fda472340ac4982fb4d5f5314b204fa081c358ea315033",
        "assigner": {
          "reference": "Organization/3a4f3433bce81181bad2d8e0b8fafccf7dc800bc06f29be73dcb38b750a48f9a"
        }
      } ],
      "status": "final",
      "category": [ {
        "coding": [ {
          "system": "http://terminology.hl7.org/CodeSystem/observation-category",
          "code": "laboratory",
          "display": "Laboratory"
        }, {
          "system": "http://loinc.org",
          "code": "26436-6"
        } ]
      } ],
      "code": {
        "coding": [ {
          "system": "http://loinc.org",
          "code": "94563-4",
          "display": "sars-cov-2-covid-19-igg-ab-in-serum-or-plasma-by-immunoassay"
        } ],
        "text": "sarsco_v2_covid19_ig_g_ia_ql"
      },
      "subject": {
        "reference": "Patient/f50acce6bcc9db07b0d0720850badecf8b24efbca4debf78f5ac8213635d5cc7"
      },
      "encounter": {
        "reference": "Encounter/bf74a0c7e9c8d81b6c5282c278d15a140052250d1179784429bd420ab70f9f16"
      },
      "effectiveDateTime": "2020-04-10T15:47:00+00:00",
      "valueCodeableConcept": {
        "coding": [ {
          "system": "http://snomed.info/sct",
          "code": "260415000"
        } ]
      }
    },
    "request": {
      "method": "POST",
      "url": "Observation",
      "ifNoneExist": "identifier=https://mein.krankenhaus.de/fhir/NamingSystem/observationId|499feadc0c2d4a8440cbb2c4700e14d01ba8a4b35fa42fd638a7433df81ad170"
    }
  }, {
    "fullUrl": "Observation/4889046c4ea3e2b48ad7050ab5ef00aba78f38599ada406e3e72da1899139e39",
    "resource": {
      "resourceType": "Observation",
      "meta": {
        "profile": [ "https://www.netzwerk-universitaetsmedizin.de/fhir/StructureDefinition/sars-cov-2-igg-ser-pl-ia-acnc" ]
      },
      "identifier": [ {
        "type": {
          "coding": [ {
            "system": "http://terminology.hl7.org/CodeSystem/v2-0203",
            "code": "OBI",
            "display": "Observation Instance Identifier"
          } ]
        },
        "system": "https://mein.krankenhaus.de/fhir/NamingSystem/observationId",
        "value": "e4e77af7c75de1200d99a7278feaffb0fc9e67ee6aa36f32bd15098c039aa3a6",
        "assigner": {
          "reference": "Organization/3a4f3433bce81181bad2d8e0b8fafccf7dc800bc06f29be73dcb38b750a48f9a"
        }
      } ],
      "status": "final",
      "category": [ {
        "coding": [ {
          "system": "http://terminology.hl7.org/CodeSystem/observation-category",
          "code": "laboratory",
          "display": "Laboratory"
        }, {
          "system": "http://loinc.org",
          "code": "26436-6"
        } ]
      } ],
      "code": {
        "coding": [ {
          "system": "http://loinc.org",
          "code": "94505-5",
          "display": "sars-cov-2-covid-19-igg-ab-in-serum-or-plasma-by-immunoassay"
        } ],
        "text": "sarsco_v2_covid19_ig_g_ia_qn"
      },
      "subject": {
        "reference": "Patient/f50acce6bcc9db07b0d0720850badecf8b24efbca4debf78f5ac8213635d5cc7"
      },
      "encounter": {
        "reference": "Encounter/bf74a0c7e9c8d81b6c5282c278d15a140052250d1179784429bd420ab70f9f16"
      },
      "effectiveDateTime": "2020-04-10T15:47:00+00:00",
      "valueQuantity": {
        "value": 9.301112606689388,
        "unit": "[arb'U]/mL",
        "system": "http://unitsofmeasure.org",
        "code": "[arb'U]/mL"
      }
    },
    "request": {
      "method": "POST",
      "url": "Observation",
      "ifNoneExist": "identifier=https://mein.krankenhaus.de/fhir/NamingSystem/observationId|4889046c4ea3e2b48ad7050ab5ef00aba78f38599ada406e3e72da1899139e39"
    }
  }, {
    "fullUrl": "Observation/e089ec7b0d5d15a12da9e6feb4642fdcb40b84d2a5119d962ab211ad95650bdf",
    "resource": {
      "resourceType": "Observation",
      "meta": {
        "profile": [ "https://www.netzwerk-universitaetsmedizin.de/fhir/StructureDefinition/sars-cov-2-igm-ser-pl-ql-ia" ]
      },
      "identifier": [ {
        "type": {
          "coding": [ {
            "system": "http://terminology.hl7.org/CodeSystem/v2-0203",
            "code": "OBI",
            "display": "Observation Instance Identifier"
          } ]
        },
        "system": "https://mein.krankenhaus.de/fhir/NamingSystem/observationId",
        "value": "dbb6477ef4d0ea5c5c81a74ddc652748609e7044390fb64a1f4eac37138bb629",
        "assigner": {
          "reference": "Organization/3a4f3433bce81181bad2d8e0b8fafccf7dc800bc06f29be73dcb38b750a48f9a"
        }
      } ],
      "status": "final",
      "category": [ {
        "coding": [ {
          "system": "http://terminology.hl7.org/CodeSystem/observation-category",
          "code": "laboratory",
          "display": "Laboratory"
        }, {
          "system": "http://loinc.org",
          "code": "26436-6"
        } ]
      } ],
      "code": {
        "coding": [ {
          "system": "http://loinc.org",
          "code": "94564-2",
          "display": "sars-cov-2-covid-19-igm-ab-in-serum-or-plasma-by-immunoassay"
        } ],
        "text": "sarsco_v2_covid19_ig_m_ia_ql"
      },
      "subject": {
        "reference": "Patient/f50acce6bcc9db07b0d0720850badecf8b24efbca4debf78f5ac8213635d5cc7"
      },
      "encounter": {
        "reference": "Encounter/bf74a0c7e9c8d81b6c5282c278d15a140052250d1179784429bd420ab70f9f16"
      },
      "effectiveDateTime": "2020-04-10T15:47:00+00:00",
      "valueCodeableConcept": {
        "coding": [ {
          "system": "http://snomed.info/sct",
          "code": "419984006"
        } ]
      }
    },
    "request": {
      "method": "POST",
      "url": "Observation",
      "ifNoneExist": "identifier=https://mein.krankenhaus.de/fhir/NamingSystem/observationId|e089ec7b0d5d15a12da9e6feb4642fdcb40b84d2a5119d962ab211ad95650bdf"
    }
  }, {
    "fullUrl": "Observation/bbec2764a2a9fbd2e5f54e786f5bf7b37c72ac9a1df0c3c2ba115baa60d125d5",
    "resource": {
      "resourceType": "Observation",
      "meta": {
        "profile": [ "https://www.netzwerk-universitaetsmedizin.de/fhir/StructureDefinition/sars-cov-2-igm-ser-pl-ia-acnc" ]
      },
      "identifier": [ {
        "type": {
          "coding": [ {
            "system": "http://terminology.hl7.org/CodeSystem/v2-0203",
            "code": "OBI",
            "display": "Observation Instance Identifier"
          } ]
        },
        "system": "https://mein.krankenhaus.de/fhir/NamingSystem/observationId",
        "value": "458b2210f251d423c8589c0716c0cde37b34d41c072aca026d02ad9791e3dbbb",
        "assigner": {
          "reference": "Organization/3a4f3433bce81181bad2d8e0b8fafccf7dc800bc06f29be73dcb38b750a48f9a"
        }
      } ],
      "status": "final",
      "category": [ {
        "coding": [ {
          "system": "http://terminology.hl7.org/CodeSystem/observation-category",
          "code": "laboratory",
          "display": "Laboratory"
        }, {
          "system": "http://loinc.org",
          "code": "26436-6"
        } ]
      } ],
      "code": {
        "coding": [ {
          "system": "http://loinc.org",
          "code": "94506-3",
          "display": "sars-cov-2-covid-19-igm-ab-in-serum-or-plasma-by-immunoassay"
        } ],
        "text": "sarsco_v2_covid19_ig_m_ia_qn"
      },
      "subject": {
        "reference": "Patient/f50acce6bcc9db07b0d0720850badecf8b24efbca4debf78f5ac8213635d5cc7"
      },
      "encounter": {
        "reference": "Encounter/bf74a0c7e9c8d81b6c5282c278d15a140052250d1179784429bd420ab70f9f16"
      },
      "effectiveDateTime": "2020-04-10T15:47:00+00:00",
      "valueQuantity": {
        "value": 35.72988441750048,
        "unit": "[arb'U]/mL",
        "system": "http://unitsofmeasure.org",
        "code": "[arb'U]/mL"
      }
    },
    "request": {
      "method": "POST",
      "url": "Observation",
      "ifNoneExist": "identifier=https://mein.krankenhaus.de/fhir/NamingSystem/observationId|bbec2764a2a9fbd2e5f54e786f5bf7b37c72ac9a1df0c3c2ba115baa60d125d5"
    }
  }, {
    "fullUrl": "MedicationStatement/82e3ee48caecb266cf0d756d172f6f6ea78554a836515cfadf6588d9ce98b111",
    "resource": {
      "resourceType": "MedicationStatement",
      "meta": {
        "profile": [ "https://www.netzwerk-universitaetsmedizin.de/fhir/StructureDefinition/pharmacological-therapy" ]
      },
      "identifier": [ {
        "system": "https://mein.krankenhaus.de/fhir/NamingSystem/medicationstatementId",
        "value": "7e4c464be2963177c9d43b3e8bc92355fa02997e8b87c84ab6eca53b5523a97f"
      } ],
      "status": "unknown",
      "medicationCodeableConcept": {
        "coding": [ {
          "system": "http://snomed.info/sct",
          "code": "41549009"
        } ],
        "text": "ACE inhibitors"
      },
      "subject": {
        "reference": "Patient/f50acce6bcc9db07b0d0720850badecf8b24efbca4debf78f5ac8213635d5cc7"
      },
      "_effectiveDateTime": {
        "extension": [ {
          "url": "http://hl7.org/fhir/StructureDefinition/data-absent-reason",
          "valueCode": "unknown"
        } ]
      }
    },
    "request": {
      "method": "POST",
      "url": "MedicationStatement",
      "ifNoneExist": "identifier=https://mein.krankenhaus.de/fhir/NamingSystem/medicationstatementId|82e3ee48caecb266cf0d756d172f6f6ea78554a836515cfadf6588d9ce98b111"
    }
  }, {
    "fullUrl": "MedicationStatement/eb927efcc6b578c0b1adc711d4394c6e07e71c148a88d2efcc73779464e7f9d7",
    "resource": {
      "resourceType": "MedicationStatement",
      "meta": {
        "profile": [ "https://www.netzwerk-universitaetsmedizin.de/fhir/StructureDefinition/pharmacological-therapy" ]
      },
      "identifier": [ {
        "system": "https://mein.krankenhaus.de/fhir/NamingSystem/medicationstatementId",
        "value": "fc704e28a92a8e832f61e920c5751777853c507cc5bfb290c5fae8da657bf9c9"
      } ],
      "status": "active",
      "medicationCodeableConcept": {
        "coding": [ {
          "system": "http://snomed.info/sct",
          "code": "41549009"
        } ],
        "text": "ACE inhibitors"
      },
      "subject": {
        "reference": "Patient/f50acce6bcc9db07b0d0720850badecf8b24efbca4debf78f5ac8213635d5cc7"
      },
      "effectiveDateTime": "2020-10-22T03:27:00+00:00"
    },
    "request": {
      "method": "POST",
      "url": "MedicationStatement",
      "ifNoneExist": "identifier=https://mein.krankenhaus.de/fhir/NamingSystem/medicationstatementId|eb927efcc6b578c0b1adc711d4394c6e07e71c148a88d2efcc73779464e7f9d7"
    }
  }, {
    "fullUrl": "MedicationStatement/c6f8868da1255b4154ee6bbd1e0ba660df6f355fd0fbff5a082e8d2906a7c041",
    "resource": {
      "resourceType": "MedicationStatement",
      "meta": {
        "profile": [ "https://www.netzwerk-universitaetsmedizin.de/fhir/StructureDefinition/pharmacological-therapy" ]
      },
      "identifier": [ {
        "system": "https://mein.krankenhaus.de/fhir/NamingSystem/medicationstatementId",
        "value": "08ac9e91cd226a2011358b1f822a85990ba56d0961a1877a53f7add4c7dd2150"
      } ],
      "status": "not-taken",
      "medicationCodeableConcept": {
        "coding": [ {
          "system": "http://snomed.info/sct",
          "code": "333710000"
        } ],
        "text": "immunoglobulins"
      },
      "subject": {
        "reference": "Patient/f50acce6bcc9db07b0d0720850badecf8b24efbca4debf78f5ac8213635d5cc7"
      },
      "effectiveDateTime": "2020-10-22T03:27:00+00:00"
    },
    "request": {
      "method": "POST",
      "url": "MedicationStatement",
      "ifNoneExist": "identifier=https://mein.krankenhaus.de/fhir/NamingSystem/medicationstatementId|c6f8868da1255b4154ee6bbd1e0ba660df6f355fd0fbff5a082e8d2906a7c041"
    }
  }, {
    "fullUrl": "Consent/3b8e8d488647a2d5b9dddeac951100fbe0f4f802cc482456c0980163f691aca0",
    "resource": {
      "resourceType": "Consent",
      "meta": {
        "profile": [ "http://fhir.de/ConsentManagement/StructureDefinition/Consent" ]
      },
      "identifier": [ {
        "system": "https://mein.krankenhaus.de/fhir/NamingSystem/consentId",
        "value": "3dfbde2ace80d3adf5afab440cc0839379cf9b7bfbc66984b57356e7dc93e7be"
      } ],
      "status": "active",
      "scope": {
        "coding": [ {
          "system": "http://terminology.hl7.org/CodeSystem/consentcategorycodes",
          "code": "research",
          "display": "Research Information Access"
        } ]
      },
      "category": [ {
        "coding": [ {
          "system": "http://loinc.org",
          "code": "57016-8"
        } ]
      } ],
      "patient": {
        "reference": "Patient/f50acce6bcc9db07b0d0720850badecf8b24efbca4debf78f5ac8213635d5cc7"
      },
      "dateTime": "2020-04-11",
      "organization": [ {
        "reference": "Organization/3a4f3433bce81181bad2d8e0b8fafccf7dc800bc06f29be73dcb38b750a48f9a"
      } ],
      "policy": [ {
        "uri": "https://www.medizininformatik-initiative.de/sites/default/files/2020-04/MII_AG-Consent_Einheitlicher-Mustertext_v1.6d.pdf"
      } ],
      "provision": {
        "type": "deny",
        "period": {
          "start": "2020-04-11T00:00:00+00:00",
          "end": "2050-04-11T00:00:00+00:00"
        },
        "provision": [ {
          "type": "deny",
          "period": {
            "start": "2015-04-11T00:00:00+00:00",
            "end": "2020-04-11T00:00:00+00:00"
          },
          "code": [ {
            "coding": [ {
              "system": "urn:oid:2.16.840.1.113883.3.1937.777.24.5.1",
              "code": "2.16.840.1.113883.3.1937.777.24.5.1.8",
              "display": "gee_krankenkassendaten_retro"
            } ]
          } ]
        }, {
          "period": {
            "start": "2020-04-11T00:00:00+00:00",
            "end": "2025-04-11T00:00:00+00:00"
          },
          "code": [ {
            "coding": [ {
              "system": "urn:oid:2.16.840.1.113883.3.1937.777.24.5.1",
              "code": "2.16.840.1.113883.3.1937.777.24.5.1.12",
              "display": "gee_krankenkassendaten_pro"
            } ]
          } ]
        }, {
          "type": "deny",
          "period": {
            "start": "2020-04-11T00:00:00+00:00",
            "end": "2050-04-11T00:00:00+00:00"
          },
          "code": [ {
            "coding": [ {
              "system": "urn:oid:2.16.840.1.113883.3.1937.777.24.5.1",
              "code": "2.16.840.1.113883.3.1937.777.24.5.1.14",
              "display": "gee_biomaterialien"
            } ]
          } ]
        }, {
          "type": "deny",
          "period": {
            "start": "2020-04-11T00:00:00+00:00",
            "end": "2050-04-11T00:00:00+00:00"
          },
          "code": [ {
            "coding": [ {
              "system": "urn:oid:2.16.840.1.113883.3.1937.777.24.5.1",
              "code": "2.16.840.1.113883.3.1937.777.24.5.1.32",
              "display": "gee_biomaterialien_zusaetzlich"
            } ]
          } ]
        }, {
          "type": "permit",
          "period": {
            "start": "2020-04-11T00:00:00+00:00",
            "end": "2050-04-11T00:00:00+00:00"
          },
          "code": [ {
            "coding": [ {
              "system": "urn:oid:2.16.840.1.113883.3.1937.777.24.5.1",
              "code": "2.16.840.1.113883.3.1937.777.24.5.1.19",
              "display": "gee_kontaktaufnahme"
            } ]
          } ]
        }, {
          "type": "deny",
          "period": {
            "start": "2020-04-11T00:00:00+00:00",
            "end": "2050-04-11T00:00:00+00:00"
          },
          "code": [ {
            "coding": [ {
              "system": "urn:oid:2.16.840.1.113883.3.1937.777.24.5.1",
              "code": "2.16.840.1.113883.3.1937.777.24.5.1.23",
              "display": "gee_kontaktaufnahme_zusatzbefunde"
            } ]
          } ]
        } ]
      }
    },
    "request": {
      "method": "POST",
      "url": "Consent",
      "ifNoneExist": "identifier=https://mein.krankenhaus.de/fhir/NamingSystem/consentId|3b8e8d488647a2d5b9dddeac951100fbe0f4f802cc482456c0980163f691aca0"
    }
  }, {
    "fullUrl": "Observation/5f636bb0e984b3f13c83223b211cf82c6cb696a5660c31f041056f59ed514c96",
    "resource": {
      "resourceType": "Observation",
      "meta": {
        "profile": [ "https://www.netzwerk-universitaetsmedizin.de/fhir/StructureDefinition/study-inclusion-covid-19" ]
      },
      "identifier": [ {
        "type": {
          "coding": [ {
            "system": "http://terminology.hl7.org/CodeSystem/v2-0203",
            "code": "OBI",
            "display": "Observation Instance Identifier"
          } ]
        },
        "system": "https://mein.krankenhaus.de/fhir/NamingSystem/observationId",
        "value": "0b97901a17faec204bfb1a3fef1bed1c4e1d75b5adbe63279761f9183bb5da95",
        "assigner": {
          "reference": "Organization/3a4f3433bce81181bad2d8e0b8fafccf7dc800bc06f29be73dcb38b750a48f9a"
        }
      } ],
      "status": "final",
      "category": [ {
        "coding": [ {
          "system": "http://terminology.hl7.org/CodeSystem/observation-category",
          "code": "survey",
          "display": "Survey"
        } ]
      } ],
      "code": {
        "coding": [ {
          "system": "https://www.netzwerk-universitaetsmedizin.de/fhir/CodeSystem/ecrf-parameter-codes",
          "code": "02",
          "display": "Study inclusion due to Covid-19"
        } ],
        "text": "Confirmed Covid-19 diagnosis as main reason for enrolment in the study"
      },
      "subject": {
        "reference": "Patient/f50acce6bcc9db07b0d0720850badecf8b24efbca4debf78f5ac8213635d5cc7"
      },
      "_effectiveDateTime": {
        "extension": [ {
          "url": "http://hl7.org/fhir/StructureDefinition/data-absent-reason",
          "valueCode": "unknown"
        } ]
      },
      "valueCodeableConcept": {
        "coding": [ {
          "system": "http://snomed.info/sct",
          "code": "373067005"
        } ]
      }
    },
    "request": {
      "method": "POST",
      "url": "Observation",
      "ifNoneExist": "identifier=https://mein.krankenhaus.de/fhir/NamingSystem/observationId|5f636bb0e984b3f13c83223b211cf82c6cb696a5660c31f041056f59ed514c96"
    }
  }, {
    "fullUrl": "Observation/38560678a8c3a72bcea387e4a5beb97e75b8cafa191d03687e9dc80d1a461708",
    "resource": {
      "resourceType": "Observation",
      "meta": {
        "profile": [ "https://www.netzwerk-universitaetsmedizin.de/fhir/StructureDefinition/interventional-clinical-trial-participation" ]
      },
      "identifier": [ {
        "type": {
          "coding": [ {
            "system": "http://terminology.hl7.org/CodeSystem/v2-0203",
            "code": "OBI",
            "display": "Observation Instance Identifier"
          } ]
        },
        "system": "https://mein.krankenhaus.de/fhir/NamingSystem/observationId",
        "value": "2ff3dcccf581f50bc5bfd4cbf4c242bfa46a201c6fb5450f4492e2317099b3b2",
        "assigner": {
          "reference": "Organization/3a4f3433bce81181bad2d8e0b8fafccf7dc800bc06f29be73dcb38b750a48f9a"
        }
      } ],
      "status": "final",
      "category": [ {
        "coding": [ {
          "system": "http://terminology.hl7.org/CodeSystem/observation-category",
          "code": "survey",
          "display": "Survey"
        } ]
      } ],
      "code": {
        "coding": [ {
          "system": "https://www.netzwerk-universitaetsmedizin.de/fhir/CodeSystem/ecrf-parameter-codes",
          "code": "03",
          "display": "Participation in interventional clinical trials"
        } ],
        "text": "Has the patient participated in one or more interventional clinical trials?"
      },
      "subject": {
        "reference": "Patient/f50acce6bcc9db07b0d0720850badecf8b24efbca4debf78f5ac8213635d5cc7"
      },
      "_effectiveDateTime": {
        "extension": [ {
          "url": "http://hl7.org/fhir/StructureDefinition/data-absent-reason",
          "valueCode": "unknown"
        } ]
      },
      "valueCodeableConcept": {
        "coding": [ {
          "system": "http://snomed.info/sct",
          "code": "261665006"
        } ]
      }
    },
    "request": {
      "method": "POST",
      "url": "Observation",
      "ifNoneExist": "identifier=https://mein.krankenhaus.de/fhir/NamingSystem/observationId|38560678a8c3a72bcea387e4a5beb97e75b8cafa191d03687e9dc80d1a461708"
    }
  } ]
}