{
  "resourceType": "Bundle",
  "meta": {
    "profile": [ "https://www.netzwerk-universitaetsmedizin.de/fhir/StructureDefinition/gecco-bundle" ]
  },
  "type": "transaction",
  "entry": [ {
    "fullUrl": "Patient/fa1fbf193f4c51fc106add59e9203c1f955a4621982a5a6d7c5f9f4f6de898b4",
    "resource": {
      "resourceType": "Patient",
      "meta": {
        "profile": [ "https://www.netzwerk-universitaetsmedizin.de/fhir/StructureDefinition/Patient" ]
      },
      "extension": [ {
        "url": "https://www.netzwerk-universitaetsmedizin.de/fhir/StructureDefinition/age",
        "extension": [ {
          "url": "dateTimeOfDocumentation",
          "_valueDateTime": {
            "extension": [ {
              "url": "http://hl7.org/fhir/StructureDefinition/data-absent-reason",
              "valueCode": "unknown"
            } ]
          }
        }, {
          "url": "age",
          "valueAge": {
            "value": 89,
            "unit": "years",
            "system": "http://unitsofmeasure.org",
            "code": "a"
          }
        } ]
      }, {
        "url": "https://www.netzwerk-universitaetsmedizin.de/fhir/StructureDefinition/ethnic-group",
        "valueCoding": {
          "system": "http://snomed.info/sct",
          "code": "186019001"
        }
      } ],
      "identifier": [ {
        "type": {
          "coding": [ {
            "system": "http://terminology.hl7.org/CodeSystem/v2-0203",
            "code": "MR"
          } ]
        },
        "system": "https://mein.krankenhaus.de/fhir/NamingSystem/patientId",
        "value": "synthetic_patient_871206922",
        "assigner": {
          "reference": "Organization/3a4f3433bce81181bad2d8e0b8fafccf7dc800bc06f29be73dcb38b750a48f9a"
        }
      } ],
      "birthDate": "1931-08-31"
    },
    "request": {
      "method": "POST",
      "url": "Patient",
      "ifNoneExist": "identifier=https://mein.krankenhaus.de/fhir/NamingSystem/patientId|fa1fbf193f4c51fc106add59e9203c1f955a4621982a5a6d7c5f9f4f6de898b4"
    }
  }, {
    "fullUrl": "Organization/3a4f3433bce81181bad2d8e0b8fafccf7dc800bc06f29be73dcb38b750a48f9a",
    "resource": {
      "resourceType": "Organization",
      "name": "Mein Krankenhaus"
    },
    "request": {
      "method": "POST",
      "url": "Organization",
      "ifNoneExist": "identifier=null|3a4f3433bce81181bad2d8e0b8fafccf7dc800bc06f29be73dcb38b750a48f9a"
    }
  }, {
    "fullUrl": "Encounter/50f75b06d3a7509c3bc56812dbdd47e96d5f4bf8e9a41fd9e691f1ee7e3102a4",
    "resource": {
      "resourceType": "Encounter",
      "identifier": [ {
        "system": "https://mein.krankenhaus.de/fhir/NamingSystem/encounterId",
        "value": "31578aa0367fa0400ee92bf978f6b4927a6101d271664decf81adb446b69e88a",
        "assigner": {
          "reference": "Organization/3a4f3433bce81181bad2d8e0b8fafccf7dc800bc06f29be73dcb38b750a48f9a"
        }
      } ],
      "status": "unknown",
      "class": {
        "system": "http://terminology.hl7.org/CodeSystem/v3-ActCode",
        "code": "IMP",
        "display": "inpatient encounter"
      },
      "subject": {
        "reference": "Patient/fa1fbf193f4c51fc106add59e9203c1f955a4621982a5a6d7c5f9f4f6de898b4"
      }
    },
    "request": {
      "method": "POST",
      "url": "Encounter",
      "ifNoneExist": "identifier=https://mein.krankenhaus.de/fhir/NamingSystem/encounterId|50f75b06d3a7509c3bc56812dbdd47e96d5f4bf8e9a41fd9e691f1ee7e3102a4"
    }
  }, {
    "fullUrl": "Condition/07c18787638729fb0b31fde959a1d2dee499c56dbe9d70aec68564596c81eee6",
    "resource": {
      "resourceType": "Condition",
      "meta": {
        "profile": [ "https://www.netzwerk-universitaetsmedizin.de/fhir/StructureDefinition/diagnosis-covid-19" ]
      },
      "identifier": [ {
        "system": "https://mein.krankenhaus.de/fhir/NamingSystem/conditionId",
        "value": "d8a6eda68e8efb6db4c3a625c6959373dda502764ae2e0c1e3c2439f33cd4e98"
      } ],
      "clinicalStatus": {
        "coding": [ {
          "system": "http://terminology.hl7.org/CodeSystem/condition-clinical",
          "code": "active",
          "display": "Active"
        } ]
      },
      "verificationStatus": {
        "coding": [ {
          "system": "http://terminology.hl7.org/CodeSystem/condition-ver-status",
          "code": "confirmed",
          "display": "Confirmed"
        }, {
          "system": "http://snomed.info/sct",
          "code": "410605003",
          "display": "Confirmed present (qualifier value)"
        } ]
      },
      "category": [ {
        "coding": [ {
          "system": "http://snomed.info/sct",
          "code": "394807007",
          "display": "Infectious diseases (specialty) (qualifier value)"
        } ]
      } ],
      "code": {
        "coding": [ {
          "system": "http://snomed.info/sct",
          "code": "840539006",
          "display": "Disease caused by Severe acute respiratory syndrome coronavirus 2 (disorder)"
        } ]
      },
      "subject": {
        "reference": "Patient/fa1fbf193f4c51fc106add59e9203c1f955a4621982a5a6d7c5f9f4f6de898b4"
      },
      "encounter": {
        "reference": "Encounter/50f75b06d3a7509c3bc56812dbdd47e96d5f4bf8e9a41fd9e691f1ee7e3102a4"
      },
      "_recordedDate": {
        "extension": [ {
          "url": "http://hl7.org/fhir/StructureDefinition/data-absent-reason",
          "valueCode": "unknown"
        } ]
      },
      "stage": [ {
        "summary": {
          "coding": [ {
            "system": "http://snomed.info/sct",
            "code": "255604002"
          } ]
        },
        "type": {
          "coding": [ {
            "system": "http://loinc.org",
            "code": "88859-4"
          } ]
        }
      } ]
    },
    "request": {
      "method": "POST",
      "url": "Condition",
      "ifNoneExist": "identifier=https://mein.krankenhaus.de/fhir/NamingSystem/conditionId|07c18787638729fb0b31fde959a1d2dee499c56dbe9d70aec68564596c81eee6"
    }
  }, {
    "fullUrl": "Condition/4a98a9a94d6653a228935fe54514be2212cc3ec9bb9a99942ea36987b43e6a95",
    "resource": {
      "resourceType": "Condition",
      "meta": {
        "profile": [ "https://www.netzwerk-universitaetsmedizin.de/fhir/StructureDefinition/chronic-liver-diseases" ]
      },
      "identifier": [ {
        "system": "https://mein.krankenhaus.de/fhir/NamingSystem/conditionId",
        "value": "86c5219c3baedaa6c02166dd0d438a37ec1b416c8ef8ff893efc99d9977e687d"
      } ],
      "verificationStatus": {
        "coding": [ {
          "system": "http://terminology.hl7.org/CodeSystem/condition-ver-status",
          "code": "refuted",
          "display": "Refuted"
        }, {
          "system": "http://snomed.info/sct",
          "code": "410594000",
          "display": "Definitely NOT present (qualifier value)"
        } ]
      },
      "category": [ {
        "coding": [ {
          "system": "http://snomed.info/sct",
          "code": "408472002",
          "display": "Hepatology (qualifier value)"
        } ]
      } ],
      "code": {
        "coding": [ {
          "system": "http://fhir.de/CodeSystem/dimdi/icd-10-gm",
          "version": "2021",
          "code": "K76.0"
        }, {
          "system": "http://snomed.info/sct",
          "code": "197321007"
        } ]
      },
      "subject": {
        "reference": "Patient/fa1fbf193f4c51fc106add59e9203c1f955a4621982a5a6d7c5f9f4f6de898b4"
      },
      "encounter": {
        "reference": "Encounter/50f75b06d3a7509c3bc56812dbdd47e96d5f4bf8e9a41fd9e691f1ee7e3102a4"
      },
      "_recordedDate": {
        "extension": [ {
          "url": "http://hl7.org/fhir/StructureDefinition/data-absent-reason",
          "valueCode": "unknown"
        } ]
      }
    },
    "request": {
      "method": "POST",
      "url": "Condition",
      "ifNoneExist": "identifier=https://mein.krankenhaus.de/fhir/NamingSystem/conditionId|4a98a9a94d6653a228935fe54514be2212cc3ec9bb9a99942ea36987b43e6a95"
    }
  }, {
    "fullUrl": "Condition/3872ec9098d87ce60d3a504b5f4d410996ccd3a2659b0271b927cd70d6f3ffdf",
    "resource": {
      "resourceType": "Condition",
      "meta": {
        "profile": [ "https://www.netzwerk-universitaetsmedizin.de/fhir/StructureDefinition/chronic-liver-diseases" ]
      },
      "modifierExtension": [ {
        "url": "https://www.netzwerk-universitaetsmedizin.de/fhir/StructureDefinition/uncertainty-of-presence",
        "valueCodeableConcept": {
          "coding": [ {
            "system": "http://snomed.info/sct",
            "code": "261665006",
            "display": "Unknown (qualifier value)"
          } ],
          "text": "Presence unknown."
        }
      } ],
      "identifier": [ {
        "system": "https://mein.krankenhaus.de/fhir/NamingSystem/conditionId",
        "value": "c8eab27011be4b9c9836bbed55213a935bc702b1f8d6ebc13beb42c4e3d5a80d"
      } ],
      "category": [ {
        "coding": [ {
          "system": "http://snomed.info/sct",
          "code": "408472002",
          "display": "Hepatology (qualifier value)"
        } ]
      } ],
      "code": {
        "coding": [ {
          "system": "http://fhir.de/CodeSystem/dimdi/icd-10-gm",
          "version": "2021",
          "code": "K74.6"
        }, {
          "system": "http://snomed.info/sct",
          "code": "19943007"
        } ]
      },
      "subject": {
        "reference": "Patient/fa1fbf193f4c51fc106add59e9203c1f955a4621982a5a6d7c5f9f4f6de898b4"
      },
      "encounter": {
        "reference": "Encounter/50f75b06d3a7509c3bc56812dbdd47e96d5f4bf8e9a41fd9e691f1ee7e3102a4"
      },
      "_recordedDate": {
        "extension": [ {
          "url": "http://hl7.org/fhir/StructureDefinition/data-absent-reason",
          "valueCode": "unknown"
        } ]
      }
    },
    "request": {
      "method": "POST",
      "url": "Condition",
      "ifNoneExist": "identifier=https://mein.krankenhaus.de/fhir/NamingSystem/conditionId|3872ec9098d87ce60d3a504b5f4d410996ccd3a2659b0271b927cd70d6f3ffdf"
    }
  }, {
    "fullUrl": "Condition/86c8639314c7e54d5deec08eb5d1969a72e37b5e631ffa0f1302863b0b17d8f0",
    "resource": {
      "resourceType": "Condition",
      "meta": {
        "profile": [ "https://www.netzwerk-universitaetsmedizin.de/fhir/StructureDefinition/chronic-liver-diseases" ]
      },
      "modifierExtension": [ {
        "url": "https://www.netzwerk-universitaetsmedizin.de/fhir/StructureDefinition/uncertainty-of-presence",
        "valueCodeableConcept": {
          "coding": [ {
            "system": "http://snomed.info/sct",
            "code": "261665006",
            "display": "Unknown (qualifier value)"
          } ],
          "text": "Presence unknown."
        }
      } ],
      "identifier": [ {
        "system": "https://mein.krankenhaus.de/fhir/NamingSystem/conditionId",
        "value": "1aeda6c68cdc9310c07c6df1bd61bf74f62aa1a0f1d2f9163813d7197e6d03a1"
      } ],
      "category": [ {
        "coding": [ {
          "system": "http://snomed.info/sct",
          "code": "408472002",
          "display": "Hepatology (qualifier value)"
        } ]
      } ],
      "code": {
        "coding": [ {
          "system": "http://fhir.de/CodeSystem/dimdi/icd-10-gm",
          "version": "2021",
          "code": "B18.9"
        }, {
          "system": "http://snomed.info/sct",
          "code": "10295004"
        } ]
      },
      "subject": {
        "reference": "Patient/fa1fbf193f4c51fc106add59e9203c1f955a4621982a5a6d7c5f9f4f6de898b4"
      },
      "encounter": {
        "reference": "Encounter/50f75b06d3a7509c3bc56812dbdd47e96d5f4bf8e9a41fd9e691f1ee7e3102a4"
      },
      "_recordedDate": {
        "extension": [ {
          "url": "http://hl7.org/fhir/StructureDefinition/data-absent-reason",
          "valueCode": "unknown"
        } ]
      }
    },
    "request": {
      "method": "POST",
      "url": "Condition",
      "ifNoneExist": "identifier=https://mein.krankenhaus.de/fhir/NamingSystem/conditionId|86c8639314c7e54d5deec08eb5d1969a72e37b5e631ffa0f1302863b0b17d8f0"
    }
  }, {
    "fullUrl": "Condition/b63bf12d56604064980a9c4d3ee944578d3a2aa20ce079ac4256654118906f3f",
    "resource": {
      "resourceType": "Condition",
      "meta": {
        "profile": [ "https://www.netzwerk-universitaetsmedizin.de/fhir/StructureDefinition/chronic-liver-diseases" ]
      },
      "identifier": [ {
        "system": "https://mein.krankenhaus.de/fhir/NamingSystem/conditionId",
        "value": "718d592eb98a8eb175e03681fbf57ba06a4b6ff4c0890d63e2b1909c6fa7b366"
      } ],
      "verificationStatus": {
        "coding": [ {
          "system": "http://terminology.hl7.org/CodeSystem/condition-ver-status",
          "code": "refuted",
          "display": "Refuted"
        }, {
          "system": "http://snomed.info/sct",
          "code": "410594000",
          "display": "Definitely NOT present (qualifier value)"
        } ]
      },
      "category": [ {
        "coding": [ {
          "system": "http://snomed.info/sct",
          "code": "408472002",
          "display": "Hepatology (qualifier value)"
        } ]
      } ],
      "code": {
        "coding": [ {
          "system": "http://snomed.info/sct",
          "code": "235890007"
        } ]
      },
      "subject": {
        "reference": "Patient/fa1fbf193f4c51fc106add59e9203c1f955a4621982a5a6d7c5f9f4f6de898b4"
      },
      "encounter": {
        "reference": "Encounter/50f75b06d3a7509c3bc56812dbdd47e96d5f4bf8e9a41fd9e691f1ee7e3102a4"
      },
      "_recordedDate": {
        "extension": [ {
          "url": "http://hl7.org/fhir/StructureDefinition/data-absent-reason",
          "valueCode": "unknown"
        } ]
      }
    },
    "request": {
      "method": "POST",
      "url": "Condition",
      "ifNoneExist": "identifier=https://mein.krankenhaus.de/fhir/NamingSystem/conditionId|b63bf12d56604064980a9c4d3ee944578d3a2aa20ce079ac4256654118906f3f"
    }
  }, {
    "fullUrl": "Condition/756c490244e35bb47086d6db92ba0fcf37fbf9b07a6d69a7734aeca0c35bbe42",
    "resource": {
      "resourceType": "Condition",
      "meta": {
        "profile": [ "https://www.netzwerk-universitaetsmedizin.de/fhir/StructureDefinition/chronic-liver-diseases" ]
      },
      "identifier": [ {
        "system": "https://mein.krankenhaus.de/fhir/NamingSystem/conditionId",
        "value": "93c54a2c7f807f6c865b94789a20b7b73b86e75c106ce026483026513b46cb95"
      } ],
      "verificationStatus": {
        "coding": [ {
          "system": "http://terminology.hl7.org/CodeSystem/condition-ver-status",
          "code": "refuted",
          "display": "Refuted"
        }, {
          "system": "http://snomed.info/sct",
          "code": "410594000",
          "display": "Definitely NOT present (qualifier value)"
        } ]
      },
      "category": [ {
        "coding": [ {
          "system": "http://snomed.info/sct",
          "code": "408472002",
          "display": "Hepatology (qualifier value)"
        } ]
      } ],
      "code": {
        "coding": [ {
          "system": "http://fhir.de/CodeSystem/dimdi/icd-10-gm",
          "version": "2021",
          "code": "K76.9"
        }, {
          "system": "http://snomed.info/sct",
          "code": "328383001"
        } ]
      },
      "subject": {
        "reference": "Patient/fa1fbf193f4c51fc106add59e9203c1f955a4621982a5a6d7c5f9f4f6de898b4"
      },
      "encounter": {
        "reference": "Encounter/50f75b06d3a7509c3bc56812dbdd47e96d5f4bf8e9a41fd9e691f1ee7e3102a4"
      },
      "_recordedDate": {
        "extension": [ {
          "url": "http://hl7.org/fhir/StructureDefinition/data-absent-reason",
          "valueCode": "unknown"
        } ]
      }
    },
    "request": {
      "method": "POST",
      "url": "Condition",
      "ifNoneExist": "identifier=https://mein.krankenhaus.de/fhir/NamingSystem/conditionId|756c490244e35bb47086d6db92ba0fcf37fbf9b07a6d69a7734aeca0c35bbe42"
    }
  }, {
    "fullUrl": "Condition/2092ab5119cbe0e2f14f4fabab4fd3053a5bbf01d3a63450b525f27f78d252b3",
    "resource": {
      "resourceType": "Condition",
      "meta": {
        "profile": [ "https://www.netzwerk-universitaetsmedizin.de/fhir/StructureDefinition/human-immunodeficiency-virus-infection" ]
      },
      "modifierExtension": [ {
        "url": "https://www.netzwerk-universitaetsmedizin.de/fhir/StructureDefinition/uncertainty-of-presence",
        "valueCodeableConcept": {
          "coding": [ {
            "system": "http://snomed.info/sct",
            "code": "261665006",
            "display": "Unknown (qualifier value)"
          } ],
          "text": "Presence unknown."
        }
      } ],
      "identifier": [ {
        "system": "https://mein.krankenhaus.de/fhir/NamingSystem/conditionId",
        "value": "a824ad56893a317385f362944eea5d50f06ca0b971be20d2778f4293784a2dbb"
      } ],
      "category": [ {
        "coding": [ {
          "system": "http://snomed.info/sct",
          "code": "394807007",
          "display": "Infectious diseases (specialty) (qualifier value)"
        } ]
      } ],
      "code": {
        "coding": [ {
          "system": "http://fhir.de/CodeSystem/dimdi/icd-10-gm",
          "version": "2021",
          "code": "B24"
        }, {
          "system": "http://snomed.info/sct",
          "code": "86406008"
        } ]
      },
      "subject": {
        "reference": "Patient/fa1fbf193f4c51fc106add59e9203c1f955a4621982a5a6d7c5f9f4f6de898b4"
      },
      "encounter": {
        "reference": "Encounter/50f75b06d3a7509c3bc56812dbdd47e96d5f4bf8e9a41fd9e691f1ee7e3102a4"
      },
      "_recordedDate": {
        "extension": [ {
          "url": "http://hl7.org/fhir/StructureDefinition/data-absent-reason",
          "valueCode": "unknown"
        } ]
      }
    },
    "request": {
      "method": "POST",
      "url": "Condition",
      "ifNoneExist": "identifier=https://mein.krankenhaus.de/fhir/NamingSystem/conditionId|2092ab5119cbe0e2f14f4fabab4fd3053a5bbf01d3a63450b525f27f78d252b3"
    }
  }, {
    "fullUrl": "Condition/c33d69312573a32d5073d2892cd06f211c0a745abca4fa7daf76b5184d883678",
    "resource": {
      "resourceType": "Condition",
      "meta": {
        "profile": [ "https://www.netzwerk-universitaetsmedizin.de/fhir/StructureDefinition/organ-recipient" ]
      },
      "identifier": [ {
        "system": "https://mein.krankenhaus.de/fhir/NamingSystem/conditionId",
        "value": "e08c547c8db17e6d0ba3bec7e564a03b27ca689b5cf3b5c17e843f5039a958a9"
      } ],
      "verificationStatus": {
        "coding": [ {
          "system": "http://terminology.hl7.org/CodeSystem/condition-ver-status",
          "code": "refuted",
          "display": "Refuted"
        }, {
          "system": "http://snomed.info/sct",
          "code": "410594000",
          "display": "Definitely NOT present (qualifier value)"
        } ]
      },
      "category": [ {
        "coding": [ {
          "system": "http://snomed.info/sct",
          "code": "788415003",
          "display": "Transplant medicine (qualifier value)"
        } ]
      } ],
      "code": {
        "coding": [ {
          "system": "http://fhir.de/CodeSystem/dimdi/icd-10-gm",
          "version": "2021",
          "code": "Z94.1"
        } ]
      },
      "bodySite": [ {
        "coding": [ {
          "system": "http://snomed.info/sct",
          "code": "302509004"
        } ]
      } ],
      "subject": {
        "reference": "Patient/fa1fbf193f4c51fc106add59e9203c1f955a4621982a5a6d7c5f9f4f6de898b4"
      },
      "encounter": {
        "reference": "Encounter/50f75b06d3a7509c3bc56812dbdd47e96d5f4bf8e9a41fd9e691f1ee7e3102a4"
      },
      "_recordedDate": {
        "extension": [ {
          "url": "http://hl7.org/fhir/StructureDefinition/data-absent-reason",
          "valueCode": "unknown"
        } ]
      }
    },
    "request": {
      "method": "POST",
      "url": "Condition",
      "ifNoneExist": "identifier=https://mein.krankenhaus.de/fhir/NamingSystem/conditionId|c33d69312573a32d5073d2892cd06f211c0a745abca4fa7daf76b5184d883678"
    }
  }, {
    "fullUrl": "Condition/43f54ef20b795a68540c24c269905f3683de7f64f33e4406031f02203d6c3272",
    "resource": {
      "resourceType": "Condition",
      "meta": {
        "profile": [ "https://www.netzwerk-universitaetsmedizin.de/fhir/StructureDefinition/organ-recipient" ]
      },
      "identifier": [ {
        "system": "https://mein.krankenhaus.de/fhir/NamingSystem/conditionId",
        "value": "d762f23299b2de88ae6cd476ccdd36f65f9e72306451a1742049309abcb06265"
      } ],
      "verificationStatus": {
        "coding": [ {
          "system": "http://terminology.hl7.org/CodeSystem/condition-ver-status",
          "code": "refuted",
          "display": "Refuted"
        }, {
          "system": "http://snomed.info/sct",
          "code": "410594000",
          "display": "Definitely NOT present (qualifier value)"
        } ]
      },
      "category": [ {
        "coding": [ {
          "system": "http://snomed.info/sct",
          "code": "788415003",
          "display": "Transplant medicine (qualifier value)"
        } ]
      } ],
      "code": {
        "coding": [ {
          "system": "http://fhir.de/CodeSystem/dimdi/icd-10-gm",
          "version": "2021",
          "code": "Z94.2"
        } ]
      },
      "bodySite": [ {
        "coding": [ {
          "system": "http://snomed.info/sct",
          "code": "181216001"
        } ]
      } ],
      "subject": {
        "reference": "Patient/fa1fbf193f4c51fc106add59e9203c1f955a4621982a5a6d7c5f9f4f6de898b4"
      },
      "encounter": {
        "reference": "Encounter/50f75b06d3a7509c3bc56812dbdd47e96d5f4bf8e9a41fd9e691f1ee7e3102a4"
      },
      "_recordedDate": {
        "extension": [ {
          "url": "http://hl7.org/fhir/StructureDefinition/data-absent-reason",
          "valueCode": "unknown"
        } ]
      }
    },
    "request": {
      "method": "POST",
      "url": "Condition",
      "ifNoneExist": "identifier=https://mein.krankenhaus.de/fhir/NamingSystem/conditionId|43f54ef20b795a68540c24c269905f3683de7f64f33e4406031f02203d6c3272"
    }
  }, {
    "fullUrl": "Condition/1c1a31943eaa156ded160a7bfca87f9b18aff9f89908d3f7b63a5c37081a26c7",
    "resource": {
      "resourceType": "Condition",
      "meta": {
        "profile": [ "https://www.netzwerk-universitaetsmedizin.de/fhir/StructureDefinition/organ-recipient" ]
      },
      "modifierExtension": [ {
        "url": "https://www.netzwerk-universitaetsmedizin.de/fhir/StructureDefinition/uncertainty-of-presence",
        "valueCodeableConcept": {
          "coding": [ {
            "system": "http://snomed.info/sct",
            "code": "261665006",
            "display": "Unknown (qualifier value)"
          } ],
          "text": "Presence unknown."
        }
      } ],
      "identifier": [ {
        "system": "https://mein.krankenhaus.de/fhir/NamingSystem/conditionId",
        "value": "45b70b495137396a794cb1afd16e47af3deab82606f02075692213cd402528c4"
      } ],
      "category": [ {
        "coding": [ {
          "system": "http://snomed.info/sct",
          "code": "788415003",
          "display": "Transplant medicine (qualifier value)"
        } ]
      } ],
      "code": {
        "coding": [ {
          "system": "http://fhir.de/CodeSystem/dimdi/icd-10-gm",
          "version": "2021",
          "code": "Z94.4"
        } ]
      },
      "bodySite": [ {
        "coding": [ {
          "system": "http://snomed.info/sct",
          "code": "181268008"
        } ]
      } ],
      "subject": {
        "reference": "Patient/fa1fbf193f4c51fc106add59e9203c1f955a4621982a5a6d7c5f9f4f6de898b4"
      },
      "encounter": {
        "reference": "Encounter/50f75b06d3a7509c3bc56812dbdd47e96d5f4bf8e9a41fd9e691f1ee7e3102a4"
      },
      "_recordedDate": {
        "extension": [ {
          "url": "http://hl7.org/fhir/StructureDefinition/data-absent-reason",
          "valueCode": "unknown"
        } ]
      }
    },
    "request": {
      "method": "POST",
      "url": "Condition",
      "ifNoneExist": "identifier=https://mein.krankenhaus.de/fhir/NamingSystem/conditionId|1c1a31943eaa156ded160a7bfca87f9b18aff9f89908d3f7b63a5c37081a26c7"
    }
  }, {
    "fullUrl": "Condition/54958ae3c49292d10a2f93a9f8cdf230f975e4f8dff1126be8b2e945987b61a7",
    "resource": {
      "resourceType": "Condition",
      "meta": {
        "profile": [ "https://www.netzwerk-universitaetsmedizin.de/fhir/StructureDefinition/organ-recipient" ]
      },
      "identifier": [ {
        "system": "https://mein.krankenhaus.de/fhir/NamingSystem/conditionId",
        "value": "c2e7e016200ef7d6fc43f0f5ed649e6f283973fb4ed6d586f3c290b201cb2812"
      } ],
      "clinicalStatus": {
        "coding": [ {
          "system": "http://terminology.hl7.org/CodeSystem/condition-clinical",
          "code": "active",
          "display": "Active"
        } ]
      },
      "verificationStatus": {
        "coding": [ {
          "system": "http://terminology.hl7.org/CodeSystem/condition-ver-status",
          "code": "confirmed",
          "display": "Confirmed"
        }, {
          "system": "http://snomed.info/sct",
          "code": "410605003",
          "display": "Confirmed present (qualifier value)"
        } ]
      },
      "category": [ {
        "coding": [ {
          "system": "http://snomed.info/sct",
          "code": "788415003",
          "display": "Transplant medicine (qualifier value)"
        } ]
      } ],
      "code": {
        "coding": [ {
          "system": "http://fhir.de/CodeSystem/dimdi/icd-10-gm",
          "version": "2021",
          "code": "Z94.0"
        } ]
      },
      "bodySite": [ {
        "coding": [ {
          "system": "http://snomed.info/sct",
          "code": "181414000"
        } ]
      } ],
      "subject": {
        "reference": "Patient/fa1fbf193f4c51fc106add59e9203c1f955a4621982a5a6d7c5f9f4f6de898b4"
      },
      "encounter": {
        "reference": "Encounter/50f75b06d3a7509c3bc56812dbdd47e96d5f4bf8e9a41fd9e691f1ee7e3102a4"
      },
      "_recordedDate": {
        "extension": [ {
          "url": "http://hl7.org/fhir/StructureDefinition/data-absent-reason",
          "valueCode": "unknown"
        } ]
      }
    },
    "request": {
      "method": "POST",
      "url": "Condition",
      "ifNoneExist": "identifier=https://mein.krankenhaus.de/fhir/NamingSystem/conditionId|54958ae3c49292d10a2f93a9f8cdf230f975e4f8dff1126be8b2e945987b61a7"
    }
  }, {
    "fullUrl": "Condition/b55af2f33b70f86b287c13f27013409fea327e077f5944768530c200512a1dac",
    "resource": {
      "resourceType": "Condition",
      "meta": {
        "profile": [ "https://www.netzwerk-universitaetsmedizin.de/fhir/StructureDefinition/organ-recipient" ]
      },
      "identifier": [ {
        "system": "https://mein.krankenhaus.de/fhir/NamingSystem/conditionId",
        "value": "9710dc5198c50d9cc057e4406dd22f1b51669b1495695968461855e8b9a37f72"
      } ],
      "verificationStatus": {
        "coding": [ {
          "system": "http://terminology.hl7.org/CodeSystem/condition-ver-status",
          "code": "refuted",
          "display": "Refuted"
        }, {
          "system": "http://snomed.info/sct",
          "code": "410594000",
          "display": "Definitely NOT present (qualifier value)"
        } ]
      },
      "category": [ {
        "coding": [ {
          "system": "http://snomed.info/sct",
          "code": "788415003",
          "display": "Transplant medicine (qualifier value)"
        } ]
      } ],
      "code": {
        "coding": [ {
          "system": "http://fhir.de/CodeSystem/dimdi/icd-10-gm",
          "version": "2021",
          "code": "Z94.88"
        } ]
      },
      "bodySite": [ {
        "coding": [ {
          "system": "http://snomed.info/sct",
          "code": "113276009"
        } ]
      } ],
      "subject": {
        "reference": "Patient/fa1fbf193f4c51fc106add59e9203c1f955a4621982a5a6d7c5f9f4f6de898b4"
      },
      "encounter": {
        "reference": "Encounter/50f75b06d3a7509c3bc56812dbdd47e96d5f4bf8e9a41fd9e691f1ee7e3102a4"
      },
      "_recordedDate": {
        "extension": [ {
          "url": "http://hl7.org/fhir/StructureDefinition/data-absent-reason",
          "valueCode": "unknown"
        } ]
      }
    },
    "request": {
      "method": "POST",
      "url": "Condition",
      "ifNoneExist": "identifier=https://mein.krankenhaus.de/fhir/NamingSystem/conditionId|b55af2f33b70f86b287c13f27013409fea327e077f5944768530c200512a1dac"
    }
  }, {
    "fullUrl": "Condition/f21c6cbbd894c4153deba22b1d63ffff9c734f2cead6d66dfdb688ae6fe33e3b",
    "resource": {
      "resourceType": "Condition",
      "meta": {
        "profile": [ "https://www.netzwerk-universitaetsmedizin.de/fhir/StructureDefinition/organ-recipient" ]
      },
      "identifier": [ {
        "system": "https://mein.krankenhaus.de/fhir/NamingSystem/conditionId",
        "value": "6b071c4f1c28917322cc9706a7c8530e63cf4eb31fee62a425259a70f9a1916c"
      } ],
      "verificationStatus": {
        "coding": [ {
          "system": "http://terminology.hl7.org/CodeSystem/condition-ver-status",
          "code": "refuted",
          "display": "Refuted"
        }, {
          "system": "http://snomed.info/sct",
          "code": "410594000",
          "display": "Definitely NOT present (qualifier value)"
        } ]
      },
      "category": [ {
        "coding": [ {
          "system": "http://snomed.info/sct",
          "code": "788415003",
          "display": "Transplant medicine (qualifier value)"
        } ]
      } ],
      "code": {
        "coding": [ {
          "system": "http://fhir.de/CodeSystem/dimdi/icd-10-gm",
          "version": "2021",
          "code": "Z94.5"
        } ]
      },
      "bodySite": [ {
        "coding": [ {
          "system": "http://snomed.info/sct",
          "code": "119181002"
        } ]
      } ],
      "subject": {
        "reference": "Patient/fa1fbf193f4c51fc106add59e9203c1f955a4621982a5a6d7c5f9f4f6de898b4"
      },
      "encounter": {
        "reference": "Encounter/50f75b06d3a7509c3bc56812dbdd47e96d5f4bf8e9a41fd9e691f1ee7e3102a4"
      },
      "_recordedDate": {
        "extension": [ {
          "url": "http://hl7.org/fhir/StructureDefinition/data-absent-reason",
          "valueCode": "unknown"
        } ]
      }
    },
    "request": {
      "method": "POST",
      "url": "Condition",
      "ifNoneExist": "identifier=https://mein.krankenhaus.de/fhir/NamingSystem/conditionId|f21c6cbbd894c4153deba22b1d63ffff9c734f2cead6d66dfdb688ae6fe33e3b"
    }
  }, {
    "fullUrl": "Condition/94132a773f04ffd560a364bc8d6096e4df008176d208e14b0029ac9aadf15071",
    "resource": {
      "resourceType": "Condition",
      "meta": {
        "profile": [ "https://www.netzwerk-universitaetsmedizin.de/fhir/StructureDefinition/organ-recipient" ]
      },
      "identifier": [ {
        "system": "https://mein.krankenhaus.de/fhir/NamingSystem/conditionId",
        "value": "0252a11282a842ed11f16428595b996b629eb5e0f167baeefa8abf7ce418b94d"
      } ],
      "clinicalStatus": {
        "coding": [ {
          "system": "http://terminology.hl7.org/CodeSystem/condition-clinical",
          "code": "active",
          "display": "Active"
        } ]
      },
      "verificationStatus": {
        "coding": [ {
          "system": "http://terminology.hl7.org/CodeSystem/condition-ver-status",
          "code": "confirmed",
          "display": "Confirmed"
        }, {
          "system": "http://snomed.info/sct",
          "code": "410605003",
          "display": "Confirmed present (qualifier value)"
        } ]
      },
      "category": [ {
        "coding": [ {
          "system": "http://snomed.info/sct",
          "code": "788415003",
          "display": "Transplant medicine (qualifier value)"
        } ]
      } ],
      "code": {
        "coding": [ {
          "system": "http://fhir.de/CodeSystem/dimdi/icd-10-gm",
          "version": "2021",
          "code": "Z94.7"
        } ]
      },
      "bodySite": [ {
        "coding": [ {
          "system": "http://snomed.info/sct",
          "code": "181162001"
        } ]
      } ],
      "subject": {
        "reference": "Patient/fa1fbf193f4c51fc106add59e9203c1f955a4621982a5a6d7c5f9f4f6de898b4"
      },
      "encounter": {
        "reference": "Encounter/50f75b06d3a7509c3bc56812dbdd47e96d5f4bf8e9a41fd9e691f1ee7e3102a4"
      },
      "_recordedDate": {
        "extension": [ {
          "url": "http://hl7.org/fhir/StructureDefinition/data-absent-reason",
          "valueCode": "unknown"
        } ]
      }
    },
    "request": {
      "method": "POST",
      "url": "Condition",
      "ifNoneExist": "identifier=https://mein.krankenhaus.de/fhir/NamingSystem/conditionId|94132a773f04ffd560a364bc8d6096e4df008176d208e14b0029ac9aadf15071"
    }
  }, {
    "fullUrl": "Condition/aec761d9b1aa9c7ae24164ca20ac6c7242fd8034c98652e33cd0ddaf416796b1",
    "resource": {
      "resourceType": "Condition",
      "meta": {
        "profile": [ "https://www.netzwerk-universitaetsmedizin.de/fhir/StructureDefinition/organ-recipient" ]
      },
      "identifier": [ {
        "system": "https://mein.krankenhaus.de/fhir/NamingSystem/conditionId",
        "value": "9083ea15708cdbe9450b8ad4ea2569662afa626ca62690ab4b0c05e590b629a5"
      } ],
      "verificationStatus": {
        "coding": [ {
          "system": "http://terminology.hl7.org/CodeSystem/condition-ver-status",
          "code": "refuted",
          "display": "Refuted"
        }, {
          "system": "http://snomed.info/sct",
          "code": "410594000",
          "display": "Definitely NOT present (qualifier value)"
        } ]
      },
      "category": [ {
        "coding": [ {
          "system": "http://snomed.info/sct",
          "code": "788415003",
          "display": "Transplant medicine (qualifier value)"
        } ]
      } ],
      "code": {
        "coding": [ {
          "system": "http://fhir.de/CodeSystem/dimdi/icd-10-gm",
          "version": "2021",
          "code": "Z94.9"
        } ]
      },
      "bodySite": [ {
        "coding": [ {
          "system": "http://snomed.info/sct",
          "code": "41845008"
        } ]
      } ],
      "subject": {
        "reference": "Patient/fa1fbf193f4c51fc106add59e9203c1f955a4621982a5a6d7c5f9f4f6de898b4"
      },
      "encounter": {
        "reference": "Encounter/50f75b06d3a7509c3bc56812dbdd47e96d5f4bf8e9a41fd9e691f1ee7e3102a4"
      },
      "_recordedDate": {
        "extension": [ {
          "url": "http://hl7.org/fhir/StructureDefinition/data-absent-reason",
          "valueCode": "unknown"
        } ]
      }
    },
    "request": {
      "method": "POST",
      "url": "Condition",
      "ifNoneExist": "identifier=https://mein.krankenhaus.de/fhir/NamingSystem/conditionId|aec761d9b1aa9c7ae24164ca20ac6c7242fd8034c98652e33cd0ddaf416796b1"
    }
  }, {
    "fullUrl": "Condition/02884d49d8754aa6c53a3c25bf356f32e9d5b466065d21c9028a3421f978ff12",
    "resource": {
      "resourceType": "Condition",
      "meta": {
        "profile": [ "https://www.netzwerk-universitaetsmedizin.de/fhir/StructureDefinition/organ-recipient" ]
      },
      "identifier": [ {
        "system": "https://mein.krankenhaus.de/fhir/NamingSystem/conditionId",
        "value": "937d99941db61f5d6a6197cca3249a271adbb4e804c61bf87aa5fb8b901dfb52"
      } ],
      "verificationStatus": {
        "coding": [ {
          "system": "http://terminology.hl7.org/CodeSystem/condition-ver-status",
          "code": "refuted",
          "display": "Refuted"
        }, {
          "system": "http://snomed.info/sct",
          "code": "410594000",
          "display": "Definitely NOT present (qualifier value)"
        } ]
      },
      "category": [ {
        "coding": [ {
          "system": "http://snomed.info/sct",
          "code": "788415003",
          "display": "Transplant medicine (qualifier value)"
        } ]
      } ],
      "code": {
        "coding": [ {
          "system": "http://fhir.de/CodeSystem/dimdi/icd-10-gm",
          "version": "2021",
          "code": "Z95.88"
        } ]
      },
      "bodySite": [ {
        "coding": [ {
          "system": "http://snomed.info/sct",
          "code": "181285005"
        } ]
      } ],
      "subject": {
        "reference": "Patient/fa1fbf193f4c51fc106add59e9203c1f955a4621982a5a6d7c5f9f4f6de898b4"
      },
      "encounter": {
        "reference": "Encounter/50f75b06d3a7509c3bc56812dbdd47e96d5f4bf8e9a41fd9e691f1ee7e3102a4"
      },
      "_recordedDate": {
        "extension": [ {
          "url": "http://hl7.org/fhir/StructureDefinition/data-absent-reason",
          "valueCode": "unknown"
        } ]
      }
    },
    "request": {
      "method": "POST",
      "url": "Condition",
      "ifNoneExist": "identifier=https://mein.krankenhaus.de/fhir/NamingSystem/conditionId|02884d49d8754aa6c53a3c25bf356f32e9d5b466065d21c9028a3421f978ff12"
    }
  }, {
    "fullUrl": "Condition/bab105a1ad2af6eed6e60735365618a5e5b024ff2edf6eaf9487ca4590b45fce",
    "resource": {
      "resourceType": "Condition",
      "meta": {
        "profile": [ "https://www.netzwerk-universitaetsmedizin.de/fhir/StructureDefinition/organ-recipient" ]
      },
      "modifierExtension": [ {
        "url": "https://www.netzwerk-universitaetsmedizin.de/fhir/StructureDefinition/uncertainty-of-presence",
        "valueCodeableConcept": {
          "coding": [ {
            "system": "http://snomed.info/sct",
            "code": "261665006",
            "display": "Unknown (qualifier value)"
          } ],
          "text": "Presence unknown."
        }
      } ],
      "identifier": [ {
        "system": "https://mein.krankenhaus.de/fhir/NamingSystem/conditionId",
        "value": "a55aa8524948d9620024e932b881db5b3b948f9df81be8e4752f8f8ea8cfdb52"
      } ],
      "category": [ {
        "coding": [ {
          "system": "http://snomed.info/sct",
          "code": "788415003",
          "display": "Transplant medicine (qualifier value)"
        } ]
      } ],
      "code": {
        "coding": [ {
          "system": "http://fhir.de/CodeSystem/dimdi/icd-10-gm",
          "version": "2021",
          "code": "Z95.5"
        } ]
      },
      "bodySite": [ {
        "coding": [ {
          "system": "http://snomed.info/sct",
          "code": "119206002"
        } ]
      } ],
      "subject": {
        "reference": "Patient/fa1fbf193f4c51fc106add59e9203c1f955a4621982a5a6d7c5f9f4f6de898b4"
      },
      "encounter": {
        "reference": "Encounter/50f75b06d3a7509c3bc56812dbdd47e96d5f4bf8e9a41fd9e691f1ee7e3102a4"
      },
      "_recordedDate": {
        "extension": [ {
          "url": "http://hl7.org/fhir/StructureDefinition/data-absent-reason",
          "valueCode": "unknown"
        } ]
      }
    },
    "request": {
      "method": "POST",
      "url": "Condition",
      "ifNoneExist": "identifier=https://mein.krankenhaus.de/fhir/NamingSystem/conditionId|bab105a1ad2af6eed6e60735365618a5e5b024ff2edf6eaf9487ca4590b45fce"
    }
  }, {
    "fullUrl": "Condition/7f431e10d87f88e5bb3d14a13c3d63d7a6605094ffe3a0d2a5b9725595a2885b",
    "resource": {
      "resourceType": "Condition",
      "meta": {
        "profile": [ "https://www.netzwerk-universitaetsmedizin.de/fhir/StructureDefinition/organ-recipient" ]
      },
      "identifier": [ {
        "system": "https://mein.krankenhaus.de/fhir/NamingSystem/conditionId",
        "value": "bf600682de70df917b321d2df5a461e79fcb85b2191b135a050b2e6a3a63df0e"
      } ],
      "verificationStatus": {
        "coding": [ {
          "system": "http://terminology.hl7.org/CodeSystem/condition-ver-status",
          "code": "refuted",
          "display": "Refuted"
        }, {
          "system": "http://snomed.info/sct",
          "code": "410594000",
          "display": "Definitely NOT present (qualifier value)"
        } ]
      },
      "category": [ {
        "coding": [ {
          "system": "http://snomed.info/sct",
          "code": "788415003",
          "display": "Transplant medicine (qualifier value)"
        } ]
      } ],
      "code": {
        "coding": [ {
          "system": "http://fhir.de/CodeSystem/dimdi/icd-10-gm",
          "version": "2021",
          "code": "Z94.9"
        } ]
      },
      "bodySite": [ {
        "coding": [ {
          "system": "http://snomed.info/sct",
          "code": "8935007"
        } ]
      } ],
      "subject": {
        "reference": "Patient/fa1fbf193f4c51fc106add59e9203c1f955a4621982a5a6d7c5f9f4f6de898b4"
      },
      "encounter": {
        "reference": "Encounter/50f75b06d3a7509c3bc56812dbdd47e96d5f4bf8e9a41fd9e691f1ee7e3102a4"
      },
      "_recordedDate": {
        "extension": [ {
          "url": "http://hl7.org/fhir/StructureDefinition/data-absent-reason",
          "valueCode": "unknown"
        } ]
      }
    },
    "request": {
      "method": "POST",
      "url": "Condition",
      "ifNoneExist": "identifier=https://mein.krankenhaus.de/fhir/NamingSystem/conditionId|7f431e10d87f88e5bb3d14a13c3d63d7a6605094ffe3a0d2a5b9725595a2885b"
    }
  }, {
    "fullUrl": "Condition/ede4b8a2f2df265f41ceee6641ccc76e2466785291e688b733a3a2d8c45b81fa",
    "resource": {
      "resourceType": "Condition",
      "meta": {
        "profile": [ "https://www.netzwerk-universitaetsmedizin.de/fhir/StructureDefinition/organ-recipient" ]
      },
      "identifier": [ {
        "system": "https://mein.krankenhaus.de/fhir/NamingSystem/conditionId",
        "value": "2856e9cf1bbd1a314261a584aea1f022b2580008f4e1ca030f1b4b8b2ba178db"
      } ],
      "verificationStatus": {
        "coding": [ {
          "system": "http://terminology.hl7.org/CodeSystem/condition-ver-status",
          "code": "refuted",
          "display": "Refuted"
        }, {
          "system": "http://snomed.info/sct",
          "code": "410594000",
          "display": "Definitely NOT present (qualifier value)"
        } ]
      },
      "category": [ {
        "coding": [ {
          "system": "http://snomed.info/sct",
          "code": "788415003",
          "display": "Transplant medicine (qualifier value)"
        } ]
      } ],
      "code": {
        "coding": [ {
          "system": "http://fhir.de/CodeSystem/dimdi/icd-10-gm",
          "version": "2021",
          "code": "Z94.6"
        } ]
      },
      "bodySite": [ {
        "coding": [ {
          "system": "http://snomed.info/sct",
          "code": "3138006"
        } ]
      } ],
      "subject": {
        "reference": "Patient/fa1fbf193f4c51fc106add59e9203c1f955a4621982a5a6d7c5f9f4f6de898b4"
      },
      "encounter": {
        "reference": "Encounter/50f75b06d3a7509c3bc56812dbdd47e96d5f4bf8e9a41fd9e691f1ee7e3102a4"
      },
      "_recordedDate": {
        "extension": [ {
          "url": "http://hl7.org/fhir/StructureDefinition/data-absent-reason",
          "valueCode": "unknown"
        } ]
      }
    },
    "request": {
      "method": "POST",
      "url": "Condition",
      "ifNoneExist": "identifier=https://mein.krankenhaus.de/fhir/NamingSystem/conditionId|ede4b8a2f2df265f41ceee6641ccc76e2466785291e688b733a3a2d8c45b81fa"
    }
  }, {
    "fullUrl": "Condition/45ae2fed5203ec4d149f30c4ce392cd919173b352d34dd5938534f16458cb1fc",
    "resource": {
      "resourceType": "Condition",
      "meta": {
        "profile": [ "https://www.netzwerk-universitaetsmedizin.de/fhir/StructureDefinition/organ-recipient" ]
      },
      "identifier": [ {
        "system": "https://mein.krankenhaus.de/fhir/NamingSystem/conditionId",
        "value": "98d776626ae702031208f91eeb48dc58d4f9f6904e65c16d42c70e3a5b811cf6"
      } ],
      "verificationStatus": {
        "coding": [ {
          "system": "http://terminology.hl7.org/CodeSystem/condition-ver-status",
          "code": "refuted",
          "display": "Refuted"
        }, {
          "system": "http://snomed.info/sct",
          "code": "410594000",
          "display": "Definitely NOT present (qualifier value)"
        } ]
      },
      "category": [ {
        "coding": [ {
          "system": "http://snomed.info/sct",
          "code": "788415003",
          "display": "Transplant medicine (qualifier value)"
        } ]
      } ],
      "code": {
        "coding": [ {
          "system": "http://fhir.de/CodeSystem/dimdi/icd-10-gm",
          "version": "2021",
          "code": "Z94.9"
        } ]
      },
      "bodySite": [ {
        "coding": [ {
          "system": "http://snomed.info/sct",
          "code": "309312004"
        } ]
      } ],
      "subject": {
        "reference": "Patient/fa1fbf193f4c51fc106add59e9203c1f955a4621982a5a6d7c5f9f4f6de898b4"
      },
      "encounter": {
        "reference": "Encounter/50f75b06d3a7509c3bc56812dbdd47e96d5f4bf8e9a41fd9e691f1ee7e3102a4"
      },
      "_recordedDate": {
        "extension": [ {
          "url": "http://hl7.org/fhir/StructureDefinition/data-absent-reason",
          "valueCode": "unknown"
        } ]
      }
    },
    "request": {
      "method": "POST",
      "url": "Condition",
      "ifNoneExist": "identifier=https://mein.krankenhaus.de/fhir/NamingSystem/conditionId|45ae2fed5203ec4d149f30c4ce392cd919173b352d34dd5938534f16458cb1fc"
    }
  }, {
    "fullUrl": "Condition/f2b972c914306a2fecdd110d425fc887865930a79f2c7a0c1148bacf013e497e",
    "resource": {
      "resourceType": "Condition",
      "meta": {
        "profile": [ "https://www.netzwerk-universitaetsmedizin.de/fhir/StructureDefinition/organ-recipient" ]
      },
      "modifierExtension": [ {
        "url": "https://www.netzwerk-universitaetsmedizin.de/fhir/StructureDefinition/uncertainty-of-presence",
        "valueCodeableConcept": {
          "coding": [ {
            "system": "http://snomed.info/sct",
            "code": "261665006",
            "display": "Unknown (qualifier value)"
          } ],
          "text": "Presence unknown."
        }
      } ],
      "identifier": [ {
        "system": "https://mein.krankenhaus.de/fhir/NamingSystem/conditionId",
        "value": "e67472650ab2444a9c7ecd800df4923ee6396f7216f17092b4047cd4d02ac21f"
      } ],
      "category": [ {
        "coding": [ {
          "system": "http://snomed.info/sct",
          "code": "788415003",
          "display": "Transplant medicine (qualifier value)"
        } ]
      } ],
      "code": {
        "coding": [ {
          "system": "http://fhir.de/CodeSystem/dimdi/icd-10-gm",
          "version": "2021",
          "code": "Z94.9"
        } ]
      },
      "bodySite": [ {
        "coding": [ {
          "system": "http://snomed.info/sct",
          "code": "13024002"
        } ]
      } ],
      "subject": {
        "reference": "Patient/fa1fbf193f4c51fc106add59e9203c1f955a4621982a5a6d7c5f9f4f6de898b4"
      },
      "encounter": {
        "reference": "Encounter/50f75b06d3a7509c3bc56812dbdd47e96d5f4bf8e9a41fd9e691f1ee7e3102a4"
      },
      "_recordedDate": {
        "extension": [ {
          "url": "http://hl7.org/fhir/StructureDefinition/data-absent-reason",
          "valueCode": "unknown"
        } ]
      }
    },
    "request": {
      "method": "POST",
      "url": "Condition",
      "ifNoneExist": "identifier=https://mein.krankenhaus.de/fhir/NamingSystem/conditionId|f2b972c914306a2fecdd110d425fc887865930a79f2c7a0c1148bacf013e497e"
    }
  }, {
    "fullUrl": "Condition/e6ec25d66a04200c36b3313d48696c26d3c6f1ced986bfa584643a30d63e9e05",
    "resource": {
      "resourceType": "Condition",
      "meta": {
        "profile": [ "https://www.netzwerk-universitaetsmedizin.de/fhir/StructureDefinition/diabetes-mellitus" ]
      },
      "identifier": [ {
        "system": "https://mein.krankenhaus.de/fhir/NamingSystem/conditionId",
        "value": "9bc4e14f9c1e2da95d1979e26c84680d689fbdcf2c9197450ec4e6040666fca5"
      } ],
      "verificationStatus": {
        "coding": [ {
          "system": "http://terminology.hl7.org/CodeSystem/condition-ver-status",
          "code": "confirmed",
          "display": "Confirmed"
        }, {
          "system": "http://snomed.info/sct",
          "code": "410605003",
          "display": "Confirmed present (qualifier value)"
        } ]
      },
      "category": [ {
        "coding": [ {
          "system": "http://snomed.info/sct",
          "code": "408475000",
          "display": "Diabetic medicine (qualifier value)"
        } ]
      } ],
      "code": {
        "coding": [ {
          "system": "http://snomed.info/sct",
          "code": "237599002"
        } ]
      },
      "subject": {
        "reference": "Patient/fa1fbf193f4c51fc106add59e9203c1f955a4621982a5a6d7c5f9f4f6de898b4"
      },
      "encounter": {
        "reference": "Encounter/50f75b06d3a7509c3bc56812dbdd47e96d5f4bf8e9a41fd9e691f1ee7e3102a4"
      },
      "_recordedDate": {
        "extension": [ {
          "url": "http://hl7.org/fhir/StructureDefinition/data-absent-reason",
          "valueCode": "unknown"
        } ]
      }
    },
    "request": {
      "method": "POST",
      "url": "Condition",
      "ifNoneExist": "identifier=https://mein.krankenhaus.de/fhir/NamingSystem/conditionId|e6ec25d66a04200c36b3313d48696c26d3c6f1ced986bfa584643a30d63e9e05"
    }
  }, {
    "fullUrl": "Condition/ba5f7ac3641df95cc152a49b6956275823b177e5ddcb4efc6b42b97136a5bace",
    "resource": {
      "resourceType": "Condition",
      "meta": {
        "profile": [ "https://www.netzwerk-universitaetsmedizin.de/fhir/StructureDefinition/malignant-neoplastic-disease" ]
      },
      "modifierExtension": [ {
        "url": "https://www.netzwerk-universitaetsmedizin.de/fhir/StructureDefinition/uncertainty-of-presence",
        "valueCodeableConcept": {
          "coding": [ {
            "system": "http://snomed.info/sct",
            "code": "261665006",
            "display": "Unknown (qualifier value)"
          } ],
          "text": "Presence unknown."
        }
      } ],
      "identifier": [ {
        "system": "https://mein.krankenhaus.de/fhir/NamingSystem/conditionId",
        "value": "82dc1915f25dab583c798b652a110d06ba5d2888043a717b2a3b332b923878d2"
      } ],
      "category": [ {
        "coding": [ {
          "system": "http://snomed.info/sct",
          "code": "394593009",
          "display": "Medical oncology (qualifier value)"
        } ]
      } ],
      "code": {
        "coding": [ {
          "system": "http://fhir.de/CodeSystem/dimdi/icd-10-gm",
          "version": "2021",
          "code": "C80.9"
        }, {
          "system": "http://snomed.info/sct",
          "code": "363346000"
        } ]
      },
      "subject": {
        "reference": "Patient/fa1fbf193f4c51fc106add59e9203c1f955a4621982a5a6d7c5f9f4f6de898b4"
      },
      "encounter": {
        "reference": "Encounter/50f75b06d3a7509c3bc56812dbdd47e96d5f4bf8e9a41fd9e691f1ee7e3102a4"
      },
      "_recordedDate": {
        "extension": [ {
          "url": "http://hl7.org/fhir/StructureDefinition/data-absent-reason",
          "valueCode": "unknown"
        } ]
      }
    },
    "request": {
      "method": "POST",
      "url": "Condition",
      "ifNoneExist": "identifier=https://mein.krankenhaus.de/fhir/NamingSystem/conditionId|ba5f7ac3641df95cc152a49b6956275823b177e5ddcb4efc6b42b97136a5bace"
    }
  }, {
    "fullUrl": "Condition/ea026973e378ca72271ae367e8ca2876e59792afdafaa101164b1f9cd7a1f9a5",
    "resource": {
      "resourceType": "Condition",
      "meta": {
        "profile": [ "https://www.netzwerk-universitaetsmedizin.de/fhir/StructureDefinition/gastrointestinal-ulcers" ]
      },
      "identifier": [ {
        "system": "https://mein.krankenhaus.de/fhir/NamingSystem/conditionId",
        "value": "9d0b0c59814ef660d132f76b5583a7ae16405378cb5c8a1f83601d777531055e"
      } ],
      "verificationStatus": {
        "coding": [ {
          "system": "http://terminology.hl7.org/CodeSystem/condition-ver-status",
          "code": "refuted",
          "display": "Refuted"
        }, {
          "system": "http://snomed.info/sct",
          "code": "410594000",
          "display": "Definitely NOT present (qualifier value)"
        } ]
      },
      "category": [ {
        "coding": [ {
          "system": "http://snomed.info/sct",
          "code": "394584008",
          "display": "Gastroenterology (qualifier value))"
        } ]
      } ],
      "code": {
        "coding": [ {
          "system": "http://fhir.de/CodeSystem/dimdi/icd-10-gm",
          "version": "2021",
          "code": "K28"
        }, {
          "system": "http://snomed.info/sct",
          "code": "40845000"
        } ]
      },
      "subject": {
        "reference": "Patient/fa1fbf193f4c51fc106add59e9203c1f955a4621982a5a6d7c5f9f4f6de898b4"
      },
      "encounter": {
        "reference": "Encounter/50f75b06d3a7509c3bc56812dbdd47e96d5f4bf8e9a41fd9e691f1ee7e3102a4"
      },
      "_recordedDate": {
        "extension": [ {
          "url": "http://hl7.org/fhir/StructureDefinition/data-absent-reason",
          "valueCode": "unknown"
        } ]
      }
    },
    "request": {
      "method": "POST",
      "url": "Condition",
      "ifNoneExist": "identifier=https://mein.krankenhaus.de/fhir/NamingSystem/conditionId|ea026973e378ca72271ae367e8ca2876e59792afdafaa101164b1f9cd7a1f9a5"
    }
  }, {
    "fullUrl": "Observation/5966c1a874ebe1924f08f5150234338f29ccf5aafc1fd56835b65b10f07d501d",
    "resource": {
      "resourceType": "Observation",
      "meta": {
        "profile": [ "https://www.netzwerk-universitaetsmedizin.de/fhir/StructureDefinition/smoking-status" ]
      },
      "identifier": [ {
        "system": "https://mein.krankenhaus.de/fhir/NamingSystem/observationId",
        "value": "9c034eadd3071903dc87a41a0b7c32b149257042d57ae6f2de91ef0775606db2"
      } ],
      "status": "final",
      "category": [ {
        "coding": [ {
          "system": "http://terminology.hl7.org/CodeSystem/observation-category",
          "code": "social-history",
          "display": "Social History"
        } ]
      } ],
      "code": {
        "coding": [ {
          "system": "http://loinc.org",
          "code": "72166-2"
        } ]
      },
      "subject": {
        "reference": "Patient/fa1fbf193f4c51fc106add59e9203c1f955a4621982a5a6d7c5f9f4f6de898b4"
      },
      "encounter": {
        "reference": "Encounter/50f75b06d3a7509c3bc56812dbdd47e96d5f4bf8e9a41fd9e691f1ee7e3102a4"
      },
      "_effectiveDateTime": {
        "extension": [ {
          "url": "http://hl7.org/fhir/StructureDefinition/data-absent-reason",
          "valueCode": "unknown"
        } ]
      },
      "valueCodeableConcept": {
        "coding": [ {
          "system": "http://loinc.org",
          "code": "LA18978-9"
        } ]
      }
    },
    "request": {
      "method": "POST",
      "url": "Observation",
      "ifNoneExist": "identifier=https://mein.krankenhaus.de/fhir/NamingSystem/observationId|5966c1a874ebe1924f08f5150234338f29ccf5aafc1fd56835b65b10f07d501d"
    }
  }, {
    "fullUrl": "Procedure/b0ee1f6114a616fa29acc2b85b75bb785b9cdc0d9a51178b04b067b08de1705e",
    "resource": {
      "resourceType": "Procedure",
      "meta": {
        "profile": [ "https://www.netzwerk-universitaetsmedizin.de/fhir/StructureDefinition/respiratory-therapies" ]
      },
      "identifier": [ {
        "system": "https://mein.krankenhaus.de/fhir/NamingSystem/procedureId",
        "value": "9ce423db861f99ad866c5bff7b998a726336492652e555c78f6cef62d3b7f6d7"
      } ],
      "status": "in-progress",
      "category": {
        "coding": [ {
          "system": "http://snomed.info/sct",
          "code": "277132007",
          "display": "Therapeutic procedure (procedure)"
        } ]
      },
      "code": {
        "coding": [ {
          "system": "http://snomed.info/sct",
          "code": "53950000"
        } ]
      },
      "subject": {
        "reference": "Patient/fa1fbf193f4c51fc106add59e9203c1f955a4621982a5a6d7c5f9f4f6de898b4"
      },
      "encounter": {
        "reference": "Encounter/50f75b06d3a7509c3bc56812dbdd47e96d5f4bf8e9a41fd9e691f1ee7e3102a4"
      },
      "_performedDateTime": {
        "extension": [ {
          "url": "http://hl7.org/fhir/StructureDefinition/data-absent-reason",
          "valueCode": "unknown"
        } ]
      }
    },
    "request": {
      "method": "POST",
      "url": "Procedure",
      "ifNoneExist": "identifier=https://mein.krankenhaus.de/fhir/NamingSystem/procedureId|b0ee1f6114a616fa29acc2b85b75bb785b9cdc0d9a51178b04b067b08de1705e"
    }
  }, {
    "fullUrl": "Immunization/014d73370af5e820ac0ec9d51cc57b09af46c53404346ac738063c897e2a3801",
    "resource": {
      "resourceType": "Immunization",
      "meta": {
        "profile": [ "https://www.netzwerk-universitaetsmedizin.de/fhir/StructureDefinition/immunization" ]
      },
      "identifier": [ {
        "system": "https://mein.krankenhaus.de/fhir/NamingSystem/immunizationId",
        "value": "0d08336d39e739fec1b7690af3358d4e4c7de3a26a78f5eed93c2bbd90c512a4"
      } ],
      "status": "completed",
      "vaccineCode": {
        "coding": [ {
          "system": "http://snomed.info/sct",
          "code": "836398006"
        } ]
      },
      "patient": {
        "reference": "Patient/fa1fbf193f4c51fc106add59e9203c1f955a4621982a5a6d7c5f9f4f6de898b4"
      },
      "encounter": {
        "reference": "Encounter/50f75b06d3a7509c3bc56812dbdd47e96d5f4bf8e9a41fd9e691f1ee7e3102a4"
      },
      "occurrenceDateTime": "2020-11-19",
      "protocolApplied": [ {
        "targetDisease": [ {
          "coding": [ {
            "system": "http://snomed.info/sct",
            "code": "16814004"
          } ]
        } ],
        "_doseNumberString": {
          "extension": [ {
            "url": "http://hl7.org/fhir/StructureDefinition/data-absent-reason",
            "valueCode": "unknown"
          } ]
        }
      } ]
    },
    "request": {
      "method": "POST",
      "url": "Immunization",
      "ifNoneExist": "identifier=https://mein.krankenhaus.de/fhir/NamingSystem/immunizationId|014d73370af5e820ac0ec9d51cc57b09af46c53404346ac738063c897e2a3801"
    }
  }, {
    "fullUrl": "Immunization/c7ddae47662f8641098ab2399b5a07f3891747537ecc62d8e7ccd8106bc66a3d",
    "resource": {
      "resourceType": "Immunization",
      "meta": {
        "profile": [ "https://www.netzwerk-universitaetsmedizin.de/fhir/StructureDefinition/immunization" ]
      },
      "identifier": [ {
        "system": "https://mein.krankenhaus.de/fhir/NamingSystem/immunizationId",
        "value": "fe0a5fd88a6625f45b92f0da9d23cc25133bbde6dab8e57fd7a3443c0d22663c"
      } ],
      "status": "completed",
      "vaccineCode": {
        "coding": [ {
          "system": "http://snomed.info/sct",
          "code": "836402002"
        } ]
      },
      "patient": {
        "reference": "Patient/fa1fbf193f4c51fc106add59e9203c1f955a4621982a5a6d7c5f9f4f6de898b4"
      },
      "encounter": {
        "reference": "Encounter/50f75b06d3a7509c3bc56812dbdd47e96d5f4bf8e9a41fd9e691f1ee7e3102a4"
      },
      "occurrenceDateTime": "2020-02-22",
      "protocolApplied": [ {
        "targetDisease": [ {
          "coding": [ {
            "system": "http://snomed.info/sct",
            "code": "56717001"
          } ]
        } ],
        "_doseNumberString": {
          "extension": [ {
            "url": "http://hl7.org/fhir/StructureDefinition/data-absent-reason",
            "valueCode": "unknown"
          } ]
        }
      } ]
    },
    "request": {
      "method": "POST",
      "url": "Immunization",
      "ifNoneExist": "identifier=https://mein.krankenhaus.de/fhir/NamingSystem/immunizationId|c7ddae47662f8641098ab2399b5a07f3891747537ecc62d8e7ccd8106bc66a3d"
    }
  }, {
    "fullUrl": "Immunization/b91cd08fde512a162a301c20735391decb03e1e6593ae2139d9de745fb566d77",
    "resource": {
      "resourceType": "Immunization",
      "meta": {
        "profile": [ "https://www.netzwerk-universitaetsmedizin.de/fhir/StructureDefinition/immunization" ]
      },
      "identifier": [ {
        "system": "https://mein.krankenhaus.de/fhir/NamingSystem/immunizationId",
        "value": "635320fa7d19655c1da4b96cd289051f3e9577dadc658d53a871aa7f37f12f3e"
      } ],
      "status": "completed",
      "vaccineCode": {
        "coding": [ {
          "system": "http://snomed.info/sct",
          "code": "1119349007"
        } ]
      },
      "patient": {
        "reference": "Patient/fa1fbf193f4c51fc106add59e9203c1f955a4621982a5a6d7c5f9f4f6de898b4"
      },
      "encounter": {
        "reference": "Encounter/50f75b06d3a7509c3bc56812dbdd47e96d5f4bf8e9a41fd9e691f1ee7e3102a4"
      },
      "occurrenceDateTime": "2020-09-16",
      "protocolApplied": [ {
        "targetDisease": [ {
          "coding": [ {
            "system": "http://snomed.info/sct",
            "code": "840539006"
          } ]
        } ],
        "_doseNumberString": {
          "extension": [ {
            "url": "http://hl7.org/fhir/StructureDefinition/data-absent-reason",
            "valueCode": "unknown"
          } ]
        }
      } ]
    },
    "request": {
      "method": "POST",
      "url": "Immunization",
      "ifNoneExist": "identifier=https://mein.krankenhaus.de/fhir/NamingSystem/immunizationId|b91cd08fde512a162a301c20735391decb03e1e6593ae2139d9de745fb566d77"
    }
  }, {
    "fullUrl": "Immunization/9d09b707b1c876e4f4d9e218eb5f7bedad22f95c5b39bd3057f3f8b611273373",
    "resource": {
      "resourceType": "Immunization",
      "meta": {
        "profile": [ "https://www.netzwerk-universitaetsmedizin.de/fhir/StructureDefinition/immunization" ]
      },
      "identifier": [ {
        "system": "https://mein.krankenhaus.de/fhir/NamingSystem/immunizationId",
        "value": "21e9ceff87497cc757d12bd3622f6dcd2f7e20dd9f2eb3b38c8867c874a09d7d"
      } ],
      "status": "completed",
      "vaccineCode": {
        "coding": [ {
          "system": "http://hl7.org/fhir/uv/ips/CodeSystem/absent-unknown-uv-ips",
          "code": "no-known-immunizations",
          "display": "vaccineCode unknown"
        } ]
      },
      "patient": {
        "reference": "Patient/fa1fbf193f4c51fc106add59e9203c1f955a4621982a5a6d7c5f9f4f6de898b4"
      },
      "encounter": {
        "reference": "Encounter/50f75b06d3a7509c3bc56812dbdd47e96d5f4bf8e9a41fd9e691f1ee7e3102a4"
      },
      "occurrenceDateTime": "2020-07-04",
      "protocolApplied": [ {
        "targetDisease": [ {
          "coding": [ {
            "system": "http://snomed.info/sct",
            "code": "64572001"
          } ],
          "text": "<Freitext>"
        } ],
        "_doseNumberString": {
          "extension": [ {
            "url": "http://hl7.org/fhir/StructureDefinition/data-absent-reason",
            "valueCode": "unknown"
          } ]
        }
      } ]
    },
    "request": {
      "method": "POST",
      "url": "Immunization",
      "ifNoneExist": "identifier=https://mein.krankenhaus.de/fhir/NamingSystem/immunizationId|9d09b707b1c876e4f4d9e218eb5f7bedad22f95c5b39bd3057f3f8b611273373"
    }
  }, {
    "fullUrl": "Consent/cf14640bb3051f254946153149c72b63f8c3ba0b52e6c9ad9f5edf5ccc16fe8a",
    "resource": {
      "resourceType": "Consent",
      "meta": {
        "profile": [ "https://www.netzwerk-universitaetsmedizin.de/fhir/StructureDefinition/do-not-resuscitate-order" ]
      },
      "identifier": [ {
        "system": "https://mein.krankenhaus.de/fhir/NamingSystem/consentId",
        "value": "be5a2c0afcabcc377371e92954c29f0b1d22b20b4added45a0e399188efc5b20"
      } ],
      "status": "active",
      "scope": {
        "coding": [ {
          "system": "http://terminology.hl7.org/CodeSystem/consentscope",
          "code": "adr",
          "display": "Advanced Care Directive"
        } ]
      },
      "category": [ {
        "coding": [ {
          "system": "http://terminology.hl7.org/CodeSystem/consentcategorycodes",
          "code": "dnr",
          "display": "Do Not Resuscitate"
        } ]
      } ],
      "patient": {
        "reference": "Patient/fa1fbf193f4c51fc106add59e9203c1f955a4621982a5a6d7c5f9f4f6de898b4"
      },
      "policy": [ {
        "uri": "https://www.aerzteblatt.de/archiv/65440/DNR-Anordnungen-Das-fehlende-Bindeglied"
      } ],
      "provision": {
        "code": [ {
          "coding": [ {
            "system": "http://snomed.info/sct",
            "code": "304252001"
          } ]
        } ]
      }
    },
    "request": {
      "method": "POST",
      "url": "Consent",
      "ifNoneExist": "identifier=https://mein.krankenhaus.de/fhir/NamingSystem/consentId|cf14640bb3051f254946153149c72b63f8c3ba0b52e6c9ad9f5edf5ccc16fe8a"
    }
  }, {
    "fullUrl": "DiagnosticReport/5e212d8f9fc51a4f2a3584fbd2fba3e4273af25e618791b2a3b662566fe0d81a",
    "resource": {
      "resourceType": "DiagnosticReport",
      "meta": {
        "profile": [ "https://www.netzwerk-universitaetsmedizin.de/fhir/StructureDefinition/diagnostic-report-radiology" ]
      },
      "identifier": [ {
        "system": "https://mein.krankenhaus.de/fhir/NamingSystem/diagnosticreportId",
        "value": "86fdf340e1f9e5e7daebff7f692d8759dc10de60051d22b26886248ada7ecc3b"
      } ],
      "status": "final",
      "category": [ {
        "coding": [ {
          "system": "http://loinc.org",
          "code": "18726-0",
          "display": "Radiology studies (set)"
        }, {
          "system": "http://terminology.hl7.org/CodeSystem/v2-0074",
          "code": "RAD",
          "display": "Radiology"
        } ]
      } ],
      "code": {
        "coding": [ {
          "system": "http://loinc.org",
          "code": "18748-4",
          "display": "Diagnostic imaging study"
        } ]
      },
      "subject": {
        "reference": "Patient/fa1fbf193f4c51fc106add59e9203c1f955a4621982a5a6d7c5f9f4f6de898b4"
      },
      "encounter": {
        "reference": "Encounter/50f75b06d3a7509c3bc56812dbdd47e96d5f4bf8e9a41fd9e691f1ee7e3102a4"
      },
      "_effectiveDateTime": {
        "extension": [ {
          "url": "http://hl7.org/fhir/StructureDefinition/data-absent-reason",
          "valueCode": "unknown"
        } ]
      },
      "conclusionCode": [ {
        "coding": [ {
          "system": "http://snomed.info/sct",
          "code": "118247008:363713009=373068000"
        } ]
      } ]
    },
    "request": {
      "method": "POST",
      "url": "DiagnosticReport",
      "ifNoneExist": "identifier=https://mein.krankenhaus.de/fhir/NamingSystem/diagnosticreportId|5e212d8f9fc51a4f2a3584fbd2fba3e4273af25e618791b2a3b662566fe0d81a"
    }
  }, {
    "fullUrl": "Procedure/4965e42432436d8e74e9dd6db03f17afa559deb1f6e8b0a446d14d4a85dad42a",
    "resource": {
      "resourceType": "Procedure",
      "meta": {
        "profile": [ "https://www.netzwerk-universitaetsmedizin.de/fhir/StructureDefinition/radiology-procedures" ]
      },
      "identifier": [ {
        "system": "https://mein.krankenhaus.de/fhir/NamingSystem/procedureId",
        "value": "23e79c24fbceeb0794de738d66a23f31b191db7a79e5a74dcd06abbb43e4fce4"
      } ],
      "status": "completed",
      "category": {
        "coding": [ {
          "system": "http://snomed.info/sct",
          "code": "103693007",
          "display": "Diagnostic procedure (procedure)"
        } ]
      },
      "code": {
        "coding": [ {
          "system": "http://dicom.nema.org/resources/ontology/DCM",
          "code": "RG"
        }, {
          "system": "http://snomed.info/sct",
          "code": "168537006:363704007=39607008"
        } ]
      },
      "subject": {
        "reference": "Patient/fa1fbf193f4c51fc106add59e9203c1f955a4621982a5a6d7c5f9f4f6de898b4"
      },
      "encounter": {
        "reference": "Encounter/50f75b06d3a7509c3bc56812dbdd47e96d5f4bf8e9a41fd9e691f1ee7e3102a4"
      },
      "_performedDateTime": {
        "extension": [ {
          "url": "http://hl7.org/fhir/StructureDefinition/data-absent-reason",
          "valueCode": "unknown"
        } ]
      },
      "bodySite": [ {
        "coding": [ {
          "system": "http://snomed.info/sct",
          "code": "39607008",
          "display": "Lung structure (body structure)"
        } ]
      } ],
      "report": [ {
        "reference": "DiagnosticReport/5e212d8f9fc51a4f2a3584fbd2fba3e4273af25e618791b2a3b662566fe0d81a"
      } ]
    },
    "request": {
      "method": "POST",
      "url": "Procedure",
      "ifNoneExist": "identifier=https://mein.krankenhaus.de/fhir/NamingSystem/procedureId|4965e42432436d8e74e9dd6db03f17afa559deb1f6e8b0a446d14d4a85dad42a"
    }
  }, {
    "fullUrl": "Observation/dbe35d90f919ac58f8ef0058d2c1769af98bf2ebe83998db360e2af92a205c60",
    "resource": {
      "resourceType": "Observation",
      "meta": {
        "profile": [ "https://www.netzwerk-universitaetsmedizin.de/fhir/StructureDefinition/pregnancy-status" ]
      },
      "identifier": [ {
        "type": {
          "coding": [ {
            "system": "http://terminology.hl7.org/CodeSystem/v2-0203",
            "code": "OBI",
            "display": "Observation Instance Identifier"
          } ]
        },
        "system": "https://mein.krankenhaus.de/fhir/NamingSystem/observationId",
        "value": "e6cc00b75e9fcbc443971b5baab17a54c9d64d4ddd5d819e03d44dfb89d0fad5",
        "assigner": {
          "reference": "Organization/3a4f3433bce81181bad2d8e0b8fafccf7dc800bc06f29be73dcb38b750a48f9a"
        }
      } ],
      "status": "final",
      "category": [ {
        "coding": [ {
          "system": "http://terminology.hl7.org/CodeSystem/observation-category",
          "code": "social-history",
          "display": "Social History"
        } ]
      } ],
      "code": {
        "coding": [ {
          "system": "http://loinc.org",
          "code": "82810-3"
        } ],
        "text": "Pregnancy status"
      },
      "subject": {
        "reference": "Patient/fa1fbf193f4c51fc106add59e9203c1f955a4621982a5a6d7c5f9f4f6de898b4"
      },
      "encounter": {
        "reference": "Encounter/50f75b06d3a7509c3bc56812dbdd47e96d5f4bf8e9a41fd9e691f1ee7e3102a4"
      },
      "_effectiveDateTime": {
        "extension": [ {
          "url": "http://hl7.org/fhir/StructureDefinition/data-absent-reason",
          "valueCode": "unknown"
        } ]
      },
      "valueCodeableConcept": {
        "coding": [ {
          "system": "http://loinc.org",
          "code": "LA4489-6"
        }, {
          "system": "http://snomed.info/sct",
          "code": "261665006"
        } ]
      }
    },
    "request": {
      "method": "POST",
      "url": "Observation",
      "ifNoneExist": "identifier=https://mein.krankenhaus.de/fhir/NamingSystem/observationId|dbe35d90f919ac58f8ef0058d2c1769af98bf2ebe83998db360e2af92a205c60"
    }
  }, {
    "fullUrl": "Observation/ba3b8be4492ad7ccdf2f7060ad0d81a4e99ab78e872f5aa5392a4b5fad25efeb",
    "resource": {
      "resourceType": "Observation",
      "meta": {
        "profile": [ "https://www.netzwerk-universitaetsmedizin.de/fhir/StructureDefinition/sex-assigned-at-birth" ]
      },
      "identifier": [ {
        "system": "https://mein.krankenhaus.de/fhir/NamingSystem/observationId",
        "value": "c38193de427e4441c368b42cdc1da0d0ab0a39e08348bb339a1cb1b0a81f0395"
      } ],
      "status": "final",
      "category": [ {
        "coding": [ {
          "system": "http://terminology.hl7.org/CodeSystem/observation-category",
          "code": "social-history",
          "display": "Social History"
        } ]
      } ],
      "code": {
        "coding": [ {
          "system": "http://loinc.org",
          "code": "76689-9"
        } ]
      },
      "subject": {
        "reference": "Patient/fa1fbf193f4c51fc106add59e9203c1f955a4621982a5a6d7c5f9f4f6de898b4"
      },
      "encounter": {
        "reference": "Encounter/50f75b06d3a7509c3bc56812dbdd47e96d5f4bf8e9a41fd9e691f1ee7e3102a4"
      },
      "_effectiveDateTime": {
        "extension": [ {
          "url": "http://hl7.org/fhir/StructureDefinition/data-absent-reason",
          "valueCode": "unknown"
        } ]
      },
      "valueCodeableConcept": {
        "coding": [ {
          "system": "http://hl7.org/fhir/administrative-gender",
          "code": "female"
        } ]
      }
    },
    "request": {
      "method": "POST",
      "url": "Observation",
      "ifNoneExist": "identifier=https://mein.krankenhaus.de/fhir/NamingSystem/observationId|ba3b8be4492ad7ccdf2f7060ad0d81a4e99ab78e872f5aa5392a4b5fad25efeb"
    }
  }, {
    "fullUrl": "Observation/f0903c1d9fa2774e96b96adec1198acdbd2e11fc022bf7029287de70ec5f58ba",
    "resource": {
      "resourceType": "Observation",
      "meta": {
        "profile": [ "https://www.netzwerk-universitaetsmedizin.de/fhir/StructureDefinition/frailty-score" ]
      },
      "identifier": [ {
        "type": {
          "coding": [ {
            "system": "http://terminology.hl7.org/CodeSystem/v2-0203",
            "code": "OBI",
            "display": "Observation Instance Identifier"
          } ]
        },
        "system": "https://mein.krankenhaus.de/fhir/NamingSystem/observationId",
        "value": "d07de54a7856d3155382e0356d05f279d9cfef8a9940aaec0459c5208d7b9e17",
        "assigner": {
          "reference": "Organization/3a4f3433bce81181bad2d8e0b8fafccf7dc800bc06f29be73dcb38b750a48f9a"
        }
      } ],
      "status": "final",
      "category": [ {
        "coding": [ {
          "system": "http://terminology.hl7.org/CodeSystem/observation-category",
          "code": "survey",
          "display": "Survey"
        } ]
      } ],
      "code": {
        "coding": [ {
          "system": "http://snomed.info/sct",
          "code": "763264000"
        } ],
        "text": "Frailty Scale Score"
      },
      "subject": {
        "reference": "Patient/fa1fbf193f4c51fc106add59e9203c1f955a4621982a5a6d7c5f9f4f6de898b4"
      },
      "encounter": {
        "reference": "Encounter/50f75b06d3a7509c3bc56812dbdd47e96d5f4bf8e9a41fd9e691f1ee7e3102a4"
      },
      "_effectiveDateTime": {
        "extension": [ {
          "url": "http://hl7.org/fhir/StructureDefinition/data-absent-reason",
          "valueCode": "unknown"
        } ]
      },
      "valueCodeableConcept": {
        "coding": [ {
          "system": "https://www.netzwerk-universitaetsmedizin.de/fhir/CodeSystem/frailty-score",
          "code": "9"
        } ]
      },
      "method": {
        "coding": [ {
          "system": "http://snomed.info/sct",
          "code": "445414007",
          "display": "Canadian Study of Health and Aging clinical frailty scale"
        } ]
      }
    },
    "request": {
      "method": "POST",
      "url": "Observation",
      "ifNoneExist": "identifier=https://mein.krankenhaus.de/fhir/NamingSystem/observationId|f0903c1d9fa2774e96b96adec1198acdbd2e11fc022bf7029287de70ec5f58ba"
    }
  }, {
    "fullUrl": "Observation/881f25ba5edc1e868347101edd9ed935e3d3690f6f5ec3d74c964ad2decf3aec",
    "resource": {
      "resourceType": "Observation",
      "meta": {
        "profile": [ "https://www.netzwerk-universitaetsmedizin.de/fhir/StructureDefinition/body-weight" ]
      },
      "identifier": [ {
        "type": {
          "coding": [ {
            "system": "http://terminology.hl7.org/CodeSystem/v2-0203",
            "code": "OBI",
            "display": "Observation Instance Identifier"
          } ]
        },
        "system": "https://mein.krankenhaus.de/fhir/NamingSystem/observationId",
        "value": "cca6d1f4fd50f518a4341e6e23532822479ca13e8eaf73ab6a8003c29d97a474",
        "assigner": {
          "reference": "Organization/3a4f3433bce81181bad2d8e0b8fafccf7dc800bc06f29be73dcb38b750a48f9a"
        }
      } ],
      "status": "final",
      "category": [ {
        "coding": [ {
          "system": "http://terminology.hl7.org/CodeSystem/observation-category",
          "code": "vital-signs",
          "display": "Vital Signs"
        } ]
      } ],
      "code": {
        "coding": [ {
          "system": "http://loinc.org",
          "code": "29463-7"
        }, {
          "system": "http://snomed.info/sct",
          "code": "27113001"
        } ],
        "text": "Body Weight"
      },
      "subject": {
        "reference": "Patient/fa1fbf193f4c51fc106add59e9203c1f955a4621982a5a6d7c5f9f4f6de898b4"
      },
      "encounter": {
        "reference": "Encounter/50f75b06d3a7509c3bc56812dbdd47e96d5f4bf8e9a41fd9e691f1ee7e3102a4"
      },
      "_effectiveDateTime": {
        "extension": [ {
          "url": "http://hl7.org/fhir/StructureDefinition/data-absent-reason",
          "valueCode": "unknown"
        } ]
      },
      "valueQuantity": {
        "value": 19,
        "unit": "kilogram",
        "system": "http://unitsofmeasure.org",
        "code": "kg"
      }
    },
    "request": {
      "method": "POST",
      "url": "Observation",
      "ifNoneExist": "identifier=https://mein.krankenhaus.de/fhir/NamingSystem/observationId|881f25ba5edc1e868347101edd9ed935e3d3690f6f5ec3d74c964ad2decf3aec"
    }
  }, {
    "fullUrl": "Observation/0710b4a8ef851c891496bc9b34e098314d354d3b9dcc39e8e38a05a825169dde",
    "resource": {
      "resourceType": "Observation",
      "meta": {
        "profile": [ "https://www.netzwerk-universitaetsmedizin.de/fhir/StructureDefinition/body-height" ]
      },
      "identifier": [ {
        "type": {
          "coding": [ {
            "system": "http://terminology.hl7.org/CodeSystem/v2-0203",
            "code": "OBI",
            "display": "Observation Instance Identifier"
          } ]
        },
        "system": "https://mein.krankenhaus.de/fhir/NamingSystem/observationId",
        "value": "8d1e7df242cd2f441230a2e71baa412386c20156dcdbcc462967c014be609c7c",
        "assigner": {
          "reference": "Organization/3a4f3433bce81181bad2d8e0b8fafccf7dc800bc06f29be73dcb38b750a48f9a"
        }
      } ],
      "status": "final",
      "category": [ {
        "coding": [ {
          "system": "http://terminology.hl7.org/CodeSystem/observation-category",
          "code": "vital-signs",
          "display": "Vital Signs"
        } ]
      } ],
      "code": {
        "coding": [ {
          "system": "http://loinc.org",
          "code": "8302-2"
        }, {
          "system": "http://snomed.info/sct",
          "code": "50373000"
        } ],
        "text": "Body height"
      },
      "subject": {
        "reference": "Patient/fa1fbf193f4c51fc106add59e9203c1f955a4621982a5a6d7c5f9f4f6de898b4"
      },
      "encounter": {
        "reference": "Encounter/50f75b06d3a7509c3bc56812dbdd47e96d5f4bf8e9a41fd9e691f1ee7e3102a4"
      },
      "_effectiveDateTime": {
        "extension": [ {
          "url": "http://hl7.org/fhir/StructureDefinition/data-absent-reason",
          "valueCode": "unknown"
        } ]
      },
      "valueQuantity": {
        "value": 200,
        "unit": "centimeter",
        "system": "http://unitsofmeasure.org",
        "code": "cm"
      }
    },
    "request": {
      "method": "POST",
      "url": "Observation",
      "ifNoneExist": "identifier=https://mein.krankenhaus.de/fhir/NamingSystem/observationId|0710b4a8ef851c891496bc9b34e098314d354d3b9dcc39e8e38a05a825169dde"
    }
  }, {
    "fullUrl": "Observation/a33b412466a0a7bf2fe11f8951af5e6dc6be8e93c71275be211ff1c9ed19460f",
    "resource": {
      "resourceType": "Observation",
      "meta": {
        "profile": [ "https://www.netzwerk-universitaetsmedizin.de/fhir/StructureDefinition/known-exposure" ]
      },
      "identifier": [ {
        "type": {
          "coding": [ {
            "system": "http://terminology.hl7.org/CodeSystem/v2-0203",
            "code": "OBI",
            "display": "Observation Instance Identifier"
          } ]
        },
        "system": "https://mein.krankenhaus.de/fhir/NamingSystem/observationId",
        "value": "2f56281f428d52eff8f16a463cbf745973c446d3b299b7037f635d661bcab16a",
        "assigner": {
          "reference": "Organization/3a4f3433bce81181bad2d8e0b8fafccf7dc800bc06f29be73dcb38b750a48f9a"
        }
      } ],
      "status": "final",
      "category": [ {
        "coding": [ {
          "system": "http://terminology.hl7.org/CodeSystem/observation-category",
          "code": "social-history",
          "display": "Social History"
        } ]
      } ],
      "code": {
        "coding": [ {
          "system": "http://loinc.org",
          "code": "88636-6"
        } ],
        "text": "Known exposure"
      },
      "subject": {
        "reference": "Patient/fa1fbf193f4c51fc106add59e9203c1f955a4621982a5a6d7c5f9f4f6de898b4"
      },
      "encounter": {
        "reference": "Encounter/50f75b06d3a7509c3bc56812dbdd47e96d5f4bf8e9a41fd9e691f1ee7e3102a4"
      },
      "_effectiveDateTime": {
        "extension": [ {
          "url": "http://hl7.org/fhir/StructureDefinition/data-absent-reason",
          "valueCode": "unknown"
        } ]
      },
      "valueCodeableConcept": {
        "coding": [ {
          "system": "http://snomed.info/sct",
          "code": "840546002"
        } ]
      }
    },
    "request": {
      "method": "POST",
      "url": "Observation",
      "ifNoneExist": "identifier=https://mein.krankenhaus.de/fhir/NamingSystem/observationId|a33b412466a0a7bf2fe11f8951af5e6dc6be8e93c71275be211ff1c9ed19460f"
    }
  }, {
    "fullUrl": "Procedure/c6d6095e6345e1dd92b1df6189e6c4a5b12f757471630d0d1f7f3c6f3bf09341",
    "resource": {
      "resourceType": "Procedure",
      "meta": {
        "profile": [ "https://www.netzwerk-universitaetsmedizin.de/fhir/StructureDefinition/dialysis" ]
      },
      "identifier": [ {
        "system": "https://mein.krankenhaus.de/fhir/NamingSystem/procedureId",
        "value": "6ac29ed7ef724ff60405007f5c3fb1c471342bbdc46aea1d2f101d0672ab2858"
      } ],
      "status": "in-progress",
      "category": {
        "coding": [ {
          "system": "http://snomed.info/sct",
          "code": "277132007",
          "display": "Therapeutic procedure (procedure)"
        } ]
      },
      "code": {
        "coding": [ {
          "system": "http://snomed.info/sct",
          "code": "108241001"
        } ],
        "text": "Dialysis"
      },
      "subject": {
        "reference": "Patient/fa1fbf193f4c51fc106add59e9203c1f955a4621982a5a6d7c5f9f4f6de898b4"
      },
      "encounter": {
        "reference": "Encounter/50f75b06d3a7509c3bc56812dbdd47e96d5f4bf8e9a41fd9e691f1ee7e3102a4"
      },
      "_performedDateTime": {
        "extension": [ {
          "url": "http://hl7.org/fhir/StructureDefinition/data-absent-reason",
          "valueCode": "unknown"
        } ]
      }
    },
    "request": {
      "method": "POST",
      "url": "Procedure",
      "ifNoneExist": "identifier=https://mein.krankenhaus.de/fhir/NamingSystem/procedureId|c6d6095e6345e1dd92b1df6189e6c4a5b12f757471630d0d1f7f3c6f3bf09341"
    }
  }, {
    "fullUrl": "Procedure/378007865ac56e8a98591ccdc9e3019c0d351b9509d50c8a527c0a87c0d07ea5",
    "resource": {
      "resourceType": "Procedure",
      "meta": {
        "profile": [ "https://www.netzwerk-universitaetsmedizin.de/fhir/StructureDefinition/apheresis" ]
      },
      "identifier": [ {
        "system": "https://mein.krankenhaus.de/fhir/NamingSystem/procedureId",
        "value": "da4f3c61402af2ac7627b372dfc6840570275c124453dd3b1db85f9ef738a1a1"
      } ],
      "status": "unknown",
      "category": {
        "coding": [ {
          "system": "http://snomed.info/sct",
          "code": "277132007",
          "display": "Therapeutic procedure (procedure)"
        } ]
      },
      "code": {
        "coding": [ {
          "system": "http://snomed.info/sct",
          "code": "127788007"
        } ],
        "text": "Apheresis"
      },
      "subject": {
        "reference": "Patient/fa1fbf193f4c51fc106add59e9203c1f955a4621982a5a6d7c5f9f4f6de898b4"
      },
      "encounter": {
        "reference": "Encounter/50f75b06d3a7509c3bc56812dbdd47e96d5f4bf8e9a41fd9e691f1ee7e3102a4"
      },
      "_performedDateTime": {
        "extension": [ {
          "url": "http://hl7.org/fhir/StructureDefinition/data-absent-reason",
          "valueCode": "unknown"
        } ]
      }
    },
    "request": {
      "method": "POST",
      "url": "Procedure",
      "ifNoneExist": "identifier=https://mein.krankenhaus.de/fhir/NamingSystem/procedureId|378007865ac56e8a98591ccdc9e3019c0d351b9509d50c8a527c0a87c0d07ea5"
    }
  }, {
    "fullUrl": "Procedure/a94deac81aa5597c07447221c094ef25fd24314c5e3130c04f00b5b1779a480a",
    "resource": {
      "resourceType": "Procedure",
      "meta": {
        "profile": [ "https://www.netzwerk-universitaetsmedizin.de/fhir/StructureDefinition/prone-position" ]
      },
      "identifier": [ {
        "system": "https://mein.krankenhaus.de/fhir/NamingSystem/procedureId",
        "value": "ab435985ad0e5ee9f411b7b59cfaf5998c366f403ae9bd184e19c754dd9a1411"
      } ],
      "status": "in-progress",
      "category": {
        "coding": [ {
          "system": "http://snomed.info/sct",
          "code": "225287004",
          "display": "Procedures relating to positioning and support (procedure)"
        } ]
      },
      "code": {
        "coding": [ {
          "system": "http://snomed.info/sct",
          "code": "431182000"
        } ],
        "text": "Prone position"
      },
      "subject": {
        "reference": "Patient/fa1fbf193f4c51fc106add59e9203c1f955a4621982a5a6d7c5f9f4f6de898b4"
      },
      "encounter": {
        "reference": "Encounter/50f75b06d3a7509c3bc56812dbdd47e96d5f4bf8e9a41fd9e691f1ee7e3102a4"
      },
      "_performedDateTime": {
        "extension": [ {
          "url": "http://hl7.org/fhir/StructureDefinition/data-absent-reason",
          "valueCode": "unknown"
        } ]
      }
    },
    "request": {
      "method": "POST",
      "url": "Procedure",
      "ifNoneExist": "identifier=https://mein.krankenhaus.de/fhir/NamingSystem/procedureId|a94deac81aa5597c07447221c094ef25fd24314c5e3130c04f00b5b1779a480a"
    }
  }, {
    "fullUrl": "Procedure/2294ab98e61d40da688b00598b79d32b29a60581d9b98f95bdca9380bcba487e",
    "resource": {
      "resourceType": "Procedure",
      "meta": {
        "profile": [ "https://www.netzwerk-universitaetsmedizin.de/fhir/StructureDefinition/extracorporeal-membrane-oxygenation" ]
      },
      "identifier": [ {
        "system": "https://mein.krankenhaus.de/fhir/NamingSystem/procedureId",
        "value": "cdeaa9fc252e65f0ef2c65f50cd6167cbfbde8f29396acb0e5df2bde9ba34ca8"
      } ],
      "status": "unknown",
      "category": {
        "coding": [ {
          "system": "http://snomed.info/sct",
          "code": "277132007",
          "display": "Therapeutic procedure (procedure)"
        } ]
      },
      "code": {
        "coding": [ {
          "system": "http://snomed.info/sct",
          "code": "233573008"
        } ],
        "text": "ECMO"
      },
      "subject": {
        "reference": "Patient/fa1fbf193f4c51fc106add59e9203c1f955a4621982a5a6d7c5f9f4f6de898b4"
      },
      "encounter": {
        "reference": "Encounter/50f75b06d3a7509c3bc56812dbdd47e96d5f4bf8e9a41fd9e691f1ee7e3102a4"
      },
      "_performedDateTime": {
        "extension": [ {
          "url": "http://hl7.org/fhir/StructureDefinition/data-absent-reason",
          "valueCode": "unknown"
        } ]
      }
    },
    "request": {
      "method": "POST",
      "url": "Procedure",
      "ifNoneExist": "identifier=https://mein.krankenhaus.de/fhir/NamingSystem/procedureId|2294ab98e61d40da688b00598b79d32b29a60581d9b98f95bdca9380bcba487e"
    }
  }, {
    "fullUrl": "Procedure/b92c4898af2c4374ed62558f2f17565f4801ed5e2d9ac13173592fa541199be1",
    "resource": {
      "resourceType": "Procedure",
      "meta": {
        "profile": [ "https://www.netzwerk-universitaetsmedizin.de/fhir/StructureDefinition/respiratory-therapies" ]
      },
      "identifier": [ {
        "system": "https://mein.krankenhaus.de/fhir/NamingSystem/procedureId",
        "value": "7d59fe039534103ae8be79d306aa2f88e2bd1e5b0bb34a519df4577bde5dc49d"
      } ],
      "status": "in-progress",
      "category": {
        "coding": [ {
          "system": "http://snomed.info/sct",
          "code": "277132007",
          "display": "Therapeutic procedure (procedure)"
        } ]
      },
      "code": {
        "coding": [ {
          "system": "http://snomed.info/sct",
          "code": "40617009:425391005=129121000"
        } ]
      },
      "subject": {
        "reference": "Patient/fa1fbf193f4c51fc106add59e9203c1f955a4621982a5a6d7c5f9f4f6de898b4"
      },
      "encounter": {
        "reference": "Encounter/50f75b06d3a7509c3bc56812dbdd47e96d5f4bf8e9a41fd9e691f1ee7e3102a4"
      },
      "_performedDateTime": {
        "extension": [ {
          "url": "http://hl7.org/fhir/StructureDefinition/data-absent-reason",
          "valueCode": "unknown"
        } ]
      },
      "usedCode": [ {
        "coding": [ {
          "system": "http://snomed.info/sct",
          "code": "129121000"
        } ]
      } ]
    },
    "request": {
      "method": "POST",
      "url": "Procedure",
      "ifNoneExist": "identifier=https://mein.krankenhaus.de/fhir/NamingSystem/procedureId|b92c4898af2c4374ed62558f2f17565f4801ed5e2d9ac13173592fa541199be1"
    }
  }, {
    "fullUrl": "Observation/c8eb40b3f1eeb7429e3562d199197d4cf8f581a79a9527b1231a33cb5b33c1fd",
    "resource": {
      "resourceType": "Observation",
      "meta": {
        "profile": [ "https://www.netzwerk-universitaetsmedizin.de/fhir/StructureDefinition/patient-in-icu" ]
      },
      "identifier": [ {
        "system": "https://mein.krankenhaus.de/fhir/NamingSystem/observationId",
        "value": "c4497a1891e7ce359aad002b0d79d0dd56fa4a1452eedb7180d8ade92e23f9a4"
      } ],
      "status": "final",
      "category": [ {
        "coding": [ {
          "system": "http://terminology.hl7.org/CodeSystem/observation-category",
          "code": "survey",
          "display": "Survey"
        } ]
      } ],
      "code": {
        "coding": [ {
          "system": "https://www.netzwerk-universitaetsmedizin.de/fhir/CodeSystem/ecrf-parameter-codes",
          "code": "01",
          "display": "Is the patient in the intensive care unit?"
        } ]
      },
      "subject": {
        "reference": "Patient/fa1fbf193f4c51fc106add59e9203c1f955a4621982a5a6d7c5f9f4f6de898b4"
      },
      "encounter": {
        "reference": "Encounter/50f75b06d3a7509c3bc56812dbdd47e96d5f4bf8e9a41fd9e691f1ee7e3102a4"
      },
      "_effectiveDateTime": {
        "extension": [ {
          "url": "http://hl7.org/fhir/StructureDefinition/data-absent-reason",
          "valueCode": "unknown"
        } ]
      },
      "valueCodeableConcept": {
        "coding": [ {
          "system": "http://snomed.info/sct",
          "code": "373066001"
        } ]
      }
    },
    "request": {
      "method": "POST",
      "url": "Observation",
      "ifNoneExist": "identifier=https://mein.krankenhaus.de/fhir/NamingSystem/observationId|c8eb40b3f1eeb7429e3562d199197d4cf8f581a79a9527b1231a33cb5b33c1fd"
    }
  }, {
    "fullUrl": "Condition/83ca4bf87626fa3c84465edda4b003d51eb02f2de16dac391ceae30d2cecca1c",
    "resource": {
      "resourceType": "Condition",
      "meta": {
        "profile": [ "https://www.netzwerk-universitaetsmedizin.de/fhir/StructureDefinition/dependence-on-ventilator" ]
      },
      "identifier": [ {
        "system": "https://mein.krankenhaus.de/fhir/NamingSystem/conditionId",
        "value": "2989dec20432726d08ce96621a7ea2613b6a1d3e106445aae35887bb17549c03"
      } ],
      "clinicalStatus": {
        "coding": [ {
          "system": "http://terminology.hl7.org/CodeSystem/condition-clinical",
          "code": "active",
          "display": "Active"
        } ]
      },
      "verificationStatus": {
        "coding": [ {
          "system": "http://terminology.hl7.org/CodeSystem/condition-ver-status",
          "code": "refuted",
          "display": "Refuted"
        }, {
          "system": "http://snomed.info/sct",
          "code": "410594000",
          "display": "Definitely NOT present (qualifier value)"
        } ]
      },
      "category": [ {
        "coding": [ {
          "system": "http://snomed.info/sct",
          "code": "404989005",
          "display": "Ventilation status (observable entity)"
        } ]
      } ],
      "code": {
        "coding": [ {
          "system": "http://snomed.info/sct",
          "code": "444932008"
        } ]
      },
      "subject": {
        "reference": "Patient/fa1fbf193f4c51fc106add59e9203c1f955a4621982a5a6d7c5f9f4f6de898b4"
      },
      "encounter": {
        "reference": "Encounter/50f75b06d3a7509c3bc56812dbdd47e96d5f4bf8e9a41fd9e691f1ee7e3102a4"
      },
      "_recordedDate": {
        "extension": [ {
          "url": "http://hl7.org/fhir/StructureDefinition/data-absent-reason",
          "valueCode": "unknown"
        } ]
      }
    },
    "request": {
      "method": "POST",
      "url": "Condition",
      "ifNoneExist": "identifier=https://mein.krankenhaus.de/fhir/NamingSystem/conditionId|83ca4bf87626fa3c84465edda4b003d51eb02f2de16dac391ceae30d2cecca1c"
    }
  }, {
    "fullUrl": "Observation/cca8352289888decaef9f15d9d8feee0d5af674f1879f0c07b69f51fccfe3d18",
    "resource": {
      "resourceType": "Observation",
      "meta": {
        "profile": [ "https://www.netzwerk-universitaetsmedizin.de/fhir/StructureDefinition/discharge-disposition" ]
      },
      "identifier": [ {
        "type": {
          "coding": [ {
            "system": "http://terminology.hl7.org/CodeSystem/v2-0203",
            "code": "OBI",
            "display": "Observation Instance Identifier"
          } ]
        },
        "system": "https://mein.krankenhaus.de/fhir/NamingSystem/observationId",
        "value": "bc444a1356c762c3d102f7a8ff2e3103283d6756646c07fc635be5cbe5358f1f",
        "assigner": {
          "reference": "Organization/3a4f3433bce81181bad2d8e0b8fafccf7dc800bc06f29be73dcb38b750a48f9a"
        }
      } ],
      "status": "final",
      "category": [ {
        "coding": [ {
          "system": "http://terminology.hl7.org/CodeSystem/observation-category",
          "code": "social-history",
          "display": "Social History"
        } ]
      } ],
      "code": {
        "coding": [ {
          "system": "http://loinc.org",
          "code": "55128-3"
        } ],
        "text": "type of Discharge"
      },
      "subject": {
        "reference": "Patient/fa1fbf193f4c51fc106add59e9203c1f955a4621982a5a6d7c5f9f4f6de898b4"
      },
      "encounter": {
        "reference": "Encounter/50f75b06d3a7509c3bc56812dbdd47e96d5f4bf8e9a41fd9e691f1ee7e3102a4"
      },
      "_effectiveDateTime": {
        "extension": [ {
          "url": "http://hl7.org/fhir/StructureDefinition/data-absent-reason",
          "valueCode": "unknown"
        } ]
      },
      "valueCodeableConcept": {
        "coding": [ {
          "system": "http://snomed.info/sct",
          "code": "32485007"
        } ]
      }
    },
    "request": {
      "method": "POST",
      "url": "Observation",
      "ifNoneExist": "identifier=https://mein.krankenhaus.de/fhir/NamingSystem/observationId|cca8352289888decaef9f15d9d8feee0d5af674f1879f0c07b69f51fccfe3d18"
    }
  }, {
    "fullUrl": "Observation/5e90d5c7257b9a098296190aed088e4927a61c412821994103021afeec2abfc5",
    "resource": {
      "resourceType": "Observation",
      "meta": {
        "profile": [ "https://www.netzwerk-universitaetsmedizin.de/fhir/StructureDefinition/sars-cov-2-rt-pcr" ]
      },
      "identifier": [ {
        "type": {
          "coding": [ {
            "system": "http://terminology.hl7.org/CodeSystem/v2-0203",
            "code": "OBI",
            "display": "Observation Instance Identifier"
          } ]
        },
        "system": "https://mein.krankenhaus.de/fhir/NamingSystem/observationId",
        "value": "2febdbe2ec78f03cbd01649b3d1b9ac2a7f6ae23c869cc164e8b9f08aab6a4cb",
        "assigner": {
          "reference": "Organization/3a4f3433bce81181bad2d8e0b8fafccf7dc800bc06f29be73dcb38b750a48f9a"
        }
      } ],
      "status": "final",
      "category": [ {
        "coding": [ {
          "system": "http://terminology.hl7.org/CodeSystem/observation-category",
          "code": "laboratory",
          "display": "Laboratory"
        }, {
          "system": "http://loinc.org",
          "code": "26436-6",
          "display": "Laboratory studies (set)"
        } ]
      } ],
      "code": {
        "coding": [ {
          "system": "http://loinc.org",
          "code": "94500-6"
        } ]
      },
      "subject": {
        "reference": "Patient/fa1fbf193f4c51fc106add59e9203c1f955a4621982a5a6d7c5f9f4f6de898b4"
      },
      "encounter": {
        "reference": "Encounter/50f75b06d3a7509c3bc56812dbdd47e96d5f4bf8e9a41fd9e691f1ee7e3102a4"
      },
      "_effectiveDateTime": {
        "extension": [ {
          "url": "http://hl7.org/fhir/StructureDefinition/data-absent-reason",
          "valueCode": "unknown"
        } ]
      },
      "valueCodeableConcept": {
        "coding": [ {
          "system": "http://snomed.info/sct",
          "code": "260373001"
        } ]
      }
    },
    "request": {
      "method": "POST",
      "url": "Observation",
      "ifNoneExist": "identifier=https://mein.krankenhaus.de/fhir/NamingSystem/observationId|5e90d5c7257b9a098296190aed088e4927a61c412821994103021afeec2abfc5"
    }
  }, {
    "fullUrl": "Observation/f7ea02ea5d6cc09c4472a1a03c8033cc934a12ebdeb218f245fc56150c1f97c8",
    "resource": {
      "resourceType": "Observation",
      "meta": {
        "profile": [ "https://www.medizininformatik-initiative.de/fhir/core/modul-labor/StructureDefinition/ObservationLab" ]
      },
      "identifier": [ {
        "type": {
          "coding": [ {
            "system": "http://terminology.hl7.org/CodeSystem/v2-0203",
            "code": "OBI",
            "display": "Observation Instance Identifier"
          } ]
        },
        "system": "https://mein.krankenhaus.de/fhir/NamingSystem/observationId",
        "value": "46531a84e1b53cf2fbb25a27ab8224ff3b769ad1e66fb0ca3e3c085c1b6c6bd2",
        "assigner": {
          "reference": "Organization/3a4f3433bce81181bad2d8e0b8fafccf7dc800bc06f29be73dcb38b750a48f9a"
        }
      } ],
      "status": "final",
      "category": [ {
        "coding": [ {
          "system": "http://terminology.hl7.org/CodeSystem/observation-category",
          "code": "laboratory",
          "display": "Laboratory"
        }, {
          "system": "http://loinc.org",
          "code": "26436-6"
        } ]
      } ],
      "code": {
        "coding": [ {
          "system": "http://loinc.org",
          "code": "48421-2",
          "display": "c-reactive-protein-in-capillary-blood"
        } ],
        "text": "crp"
      },
      "subject": {
        "reference": "Patient/fa1fbf193f4c51fc106add59e9203c1f955a4621982a5a6d7c5f9f4f6de898b4"
      },
      "encounter": {
        "reference": "Encounter/50f75b06d3a7509c3bc56812dbdd47e96d5f4bf8e9a41fd9e691f1ee7e3102a4"
      },
      "effectiveDateTime": "2020-10-22T19:54:00+00:00",
      "valueQuantity": {
        "value": 56.7377377414048,
        "unit": "mg/dL",
        "system": "http://unitsofmeasure.org",
        "code": "mg/dL"
      }
    },
    "request": {
      "method": "POST",
      "url": "Observation",
      "ifNoneExist": "identifier=https://mein.krankenhaus.de/fhir/NamingSystem/observationId|f7ea02ea5d6cc09c4472a1a03c8033cc934a12ebdeb218f245fc56150c1f97c8"
    }
  }, {
    "fullUrl": "Observation/46533f810ed1a46f3810b4bd43f6abaee6b7bcf22951c55a48906e35ff80c4b8",
    "resource": {
      "resourceType": "Observation",
      "meta": {
        "profile": [ "https://www.medizininformatik-initiative.de/fhir/core/modul-labor/StructureDefinition/ObservationLab" ]
      },
      "identifier": [ {
        "type": {
          "coding": [ {
            "system": "http://terminology.hl7.org/CodeSystem/v2-0203",
            "code": "OBI",
            "display": "Observation Instance Identifier"
          } ]
        },
        "system": "https://mein.krankenhaus.de/fhir/NamingSystem/observationId",
        "value": "17151b13fc2c787f1e65f5415dc5764f6b39fe404d19951023a73d22fc38c018",
        "assigner": {
          "reference": "Organization/3a4f3433bce81181bad2d8e0b8fafccf7dc800bc06f29be73dcb38b750a48f9a"
        }
      } ],
      "status": "final",
      "category": [ {
        "coding": [ {
          "system": "http://terminology.hl7.org/CodeSystem/observation-category",
          "code": "laboratory",
          "display": "Laboratory"
        }, {
          "system": "http://loinc.org",
          "code": "26436-6"
        } ]
      } ],
      "code": {
        "coding": [ {
          "system": "http://loinc.org",
          "code": "14723-1",
          "display": "ferritin-in-serum-or-plasma"
        } ],
        "text": "ferritin"
      },
      "subject": {
        "reference": "Patient/fa1fbf193f4c51fc106add59e9203c1f955a4621982a5a6d7c5f9f4f6de898b4"
      },
      "encounter": {
        "reference": "Encounter/50f75b06d3a7509c3bc56812dbdd47e96d5f4bf8e9a41fd9e691f1ee7e3102a4"
      },
      "effectiveDateTime": "2020-10-22T19:54:00+00:00",
      "valueQuantity": {
        "value": 78.7196659499382,
        "unit": "pmol/L",
        "system": "http://unitsofmeasure.org",
        "code": "pmol/L"
      }
    },
    "request": {
      "method": "POST",
      "url": "Observation",
      "ifNoneExist": "identifier=https://mein.krankenhaus.de/fhir/NamingSystem/observationId|46533f810ed1a46f3810b4bd43f6abaee6b7bcf22951c55a48906e35ff80c4b8"
    }
  }, {
    "fullUrl": "Observation/e833d94c8487544122828b78380ddcb7bfbfaa134825883b9ca25e79e987c932",
    "resource": {
      "resourceType": "Observation",
      "meta": {
        "profile": [ "https://www.medizininformatik-initiative.de/fhir/core/modul-labor/StructureDefinition/ObservationLab" ]
      },
      "identifier": [ {
        "type": {
          "coding": [ {
            "system": "http://terminology.hl7.org/CodeSystem/v2-0203",
            "code": "OBI",
            "display": "Observation Instance Identifier"
          } ]
        },
        "system": "https://mein.krankenhaus.de/fhir/NamingSystem/observationId",
        "value": "ad3b720e83d8cf573e8cd42007afd97132bd4a67ca1c3891f6e68b78acb00591",
        "assigner": {
          "reference": "Organization/3a4f3433bce81181bad2d8e0b8fafccf7dc800bc06f29be73dcb38b750a48f9a"
        }
      } ],
      "status": "final",
      "category": [ {
        "coding": [ {
          "system": "http://terminology.hl7.org/CodeSystem/observation-category",
          "code": "laboratory",
          "display": "Laboratory"
        }, {
          "system": "http://loinc.org",
          "code": "26436-6"
        } ]
      } ],
      "code": {
        "coding": [ {
          "system": "http://loinc.org",
          "code": "1975-2",
          "display": "bilirubin.total-in-serum-or-plasma"
        } ],
        "text": "bilirubin"
      },
      "subject": {
        "reference": "Patient/fa1fbf193f4c51fc106add59e9203c1f955a4621982a5a6d7c5f9f4f6de898b4"
      },
      "encounter": {
        "reference": "Encounter/50f75b06d3a7509c3bc56812dbdd47e96d5f4bf8e9a41fd9e691f1ee7e3102a4"
      },
      "effectiveDateTime": "2020-10-22T19:54:00+00:00",
      "valueQuantity": {
        "value": 88.01797207211587,
        "unit": "mg/dL",
        "system": "http://unitsofmeasure.org",
        "code": "mg/dL"
      }
    },
    "request": {
      "method": "POST",
      "url": "Observation",
      "ifNoneExist": "identifier=https://mein.krankenhaus.de/fhir/NamingSystem/observationId|e833d94c8487544122828b78380ddcb7bfbfaa134825883b9ca25e79e987c932"
    }
  }, {
    "fullUrl": "Observation/855a0952de5c30c301a6666935d2a5917a38eab2c72904e37ea87001f3a65274",
    "resource": {
      "resourceType": "Observation",
      "meta": {
        "profile": [ "https://www.medizininformatik-initiative.de/fhir/core/modul-labor/StructureDefinition/ObservationLab" ]
      },
      "identifier": [ {
        "type": {
          "coding": [ {
            "system": "http://terminology.hl7.org/CodeSystem/v2-0203",
            "code": "OBI",
            "display": "Observation Instance Identifier"
          } ]
        },
        "system": "https://mein.krankenhaus.de/fhir/NamingSystem/observationId",
        "value": "307412e1a5e732a90ef4a9f0089f8199b0ed9ae740cfb4f24bd76cebc03e075a",
        "assigner": {
          "reference": "Organization/3a4f3433bce81181bad2d8e0b8fafccf7dc800bc06f29be73dcb38b750a48f9a"
        }
      } ],
      "status": "final",
      "category": [ {
        "coding": [ {
          "system": "http://terminology.hl7.org/CodeSystem/observation-category",
          "code": "laboratory",
          "display": "Laboratory"
        }, {
          "system": "http://loinc.org",
          "code": "26436-6"
        } ]
      } ],
      "code": {
        "coding": [ {
          "system": "http://loinc.org",
          "code": "48066-5",
          "display": "fibrin-d-dimer-ddu-in-platelet-poor-plasma"
        } ],
        "text": "ddimer"
      },
      "subject": {
        "reference": "Patient/fa1fbf193f4c51fc106add59e9203c1f955a4621982a5a6d7c5f9f4f6de898b4"
      },
      "encounter": {
        "reference": "Encounter/50f75b06d3a7509c3bc56812dbdd47e96d5f4bf8e9a41fd9e691f1ee7e3102a4"
      },
      "effectiveDateTime": "2020-10-22T19:54:00+00:00",
      "valueQuantity": {
        "value": 46.59273754867348,
        "unit": "ug/dL{DDU}",
        "system": "http://unitsofmeasure.org",
        "code": "ug/dL{DDU}"
      }
    },
    "request": {
      "method": "POST",
      "url": "Observation",
      "ifNoneExist": "identifier=https://mein.krankenhaus.de/fhir/NamingSystem/observationId|855a0952de5c30c301a6666935d2a5917a38eab2c72904e37ea87001f3a65274"
    }
  }, {
    "fullUrl": "Observation/07ef2b66f6f58c5a068cccbf2c85653dafe27cc3bce8ec9f092040d84855db76",
    "resource": {
      "resourceType": "Observation",
      "meta": {
        "profile": [ "https://www.medizininformatik-initiative.de/fhir/core/modul-labor/StructureDefinition/ObservationLab" ]
      },
      "identifier": [ {
        "type": {
          "coding": [ {
            "system": "http://terminology.hl7.org/CodeSystem/v2-0203",
            "code": "OBI",
            "display": "Observation Instance Identifier"
          } ]
        },
        "system": "https://mein.krankenhaus.de/fhir/NamingSystem/observationId",
        "value": "74f3c0fae06437c92d9a44a5af81fdf53ecc72c2562f08eb1842d8abd97e91f5",
        "assigner": {
          "reference": "Organization/3a4f3433bce81181bad2d8e0b8fafccf7dc800bc06f29be73dcb38b750a48f9a"
        }
      } ],
      "status": "final",
      "category": [ {
        "coding": [ {
          "system": "http://terminology.hl7.org/CodeSystem/observation-category",
          "code": "laboratory",
          "display": "Laboratory"
        }, {
          "system": "http://loinc.org",
          "code": "26436-6"
        } ]
      } ],
      "code": {
        "coding": [ {
          "system": "http://loinc.org",
          "code": "2324-2",
          "display": "gamma-glutamyl-transferase-in-serum-or-plasma"
        } ],
        "text": "gammagt"
      },
      "subject": {
        "reference": "Patient/fa1fbf193f4c51fc106add59e9203c1f955a4621982a5a6d7c5f9f4f6de898b4"
      },
      "encounter": {
        "reference": "Encounter/50f75b06d3a7509c3bc56812dbdd47e96d5f4bf8e9a41fd9e691f1ee7e3102a4"
      },
      "effectiveDateTime": "2020-10-22T19:54:00+00:00",
      "valueQuantity": {
        "value": 71.28857345858576,
        "unit": "U/L",
        "system": "http://unitsofmeasure.org",
        "code": "U/L"
      }
    },
    "request": {
      "method": "POST",
      "url": "Observation",
      "ifNoneExist": "identifier=https://mein.krankenhaus.de/fhir/NamingSystem/observationId|07ef2b66f6f58c5a068cccbf2c85653dafe27cc3bce8ec9f092040d84855db76"
    }
  }, {
    "fullUrl": "Observation/c65ee597faeaed4a6e7923370036c4c39b8e5988f24ff8211dc130c0455a4ec4",
    "resource": {
      "resourceType": "Observation",
      "meta": {
        "profile": [ "https://www.medizininformatik-initiative.de/fhir/core/modul-labor/StructureDefinition/ObservationLab" ]
      },
      "identifier": [ {
        "type": {
          "coding": [ {
            "system": "http://terminology.hl7.org/CodeSystem/v2-0203",
            "code": "OBI",
            "display": "Observation Instance Identifier"
          } ]
        },
        "system": "https://mein.krankenhaus.de/fhir/NamingSystem/observationId",
        "value": "beeb42d267b6a7ed13c37b4c809d50fe3d9d0800af340cc1b7d9464f36c2b8ec",
        "assigner": {
          "reference": "Organization/3a4f3433bce81181bad2d8e0b8fafccf7dc800bc06f29be73dcb38b750a48f9a"
        }
      } ],
      "status": "final",
      "category": [ {
        "coding": [ {
          "system": "http://terminology.hl7.org/CodeSystem/observation-category",
          "code": "laboratory",
          "display": "Laboratory"
        }, {
          "system": "http://loinc.org",
          "code": "26436-6"
        } ]
      } ],
      "code": {
        "coding": [ {
          "system": "http://loinc.org",
          "code": "1920-8",
          "display": "aspartate-aminotransferase-in-serum-or-plasma"
        } ],
        "text": "gotast"
      },
      "subject": {
        "reference": "Patient/fa1fbf193f4c51fc106add59e9203c1f955a4621982a5a6d7c5f9f4f6de898b4"
      },
      "encounter": {
        "reference": "Encounter/50f75b06d3a7509c3bc56812dbdd47e96d5f4bf8e9a41fd9e691f1ee7e3102a4"
      },
      "effectiveDateTime": "2020-10-22T19:54:00+00:00",
      "valueQuantity": {
        "value": 88.04780416051597,
        "unit": "U/L",
        "system": "http://unitsofmeasure.org",
        "code": "U/L"
      }
    },
    "request": {
      "method": "POST",
      "url": "Observation",
      "ifNoneExist": "identifier=https://mein.krankenhaus.de/fhir/NamingSystem/observationId|c65ee597faeaed4a6e7923370036c4c39b8e5988f24ff8211dc130c0455a4ec4"
    }
  }, {
    "fullUrl": "Observation/96141e64a39930d5c32381b6f7deae80e6e1bfadb3ef8b5f8e4da7a4f3f3b05e",
    "resource": {
      "resourceType": "Observation",
      "meta": {
        "profile": [ "https://www.medizininformatik-initiative.de/fhir/core/modul-labor/StructureDefinition/ObservationLab" ]
      },
      "identifier": [ {
        "type": {
          "coding": [ {
            "system": "http://terminology.hl7.org/CodeSystem/v2-0203",
            "code": "OBI",
            "display": "Observation Instance Identifier"
          } ]
        },
        "system": "https://mein.krankenhaus.de/fhir/NamingSystem/observationId",
        "value": "ce80a65840036774657ad4d3f06d9a2501fb92b5950db1073f6b89c5cd3b5c82",
        "assigner": {
          "reference": "Organization/3a4f3433bce81181bad2d8e0b8fafccf7dc800bc06f29be73dcb38b750a48f9a"
        }
      } ],
      "status": "final",
      "category": [ {
        "coding": [ {
          "system": "http://terminology.hl7.org/CodeSystem/observation-category",
          "code": "laboratory",
          "display": "Laboratory"
        }, {
          "system": "http://loinc.org",
          "code": "26436-6"
        } ]
      } ],
      "code": {
        "coding": [ {
          "system": "http://loinc.org",
          "code": "60017-1",
          "display": "lactate-dehydrogenase-in-body-fluid-by-pyruvate-to-lactate-reaction"
        } ],
        "text": "ldh"
      },
      "subject": {
        "reference": "Patient/fa1fbf193f4c51fc106add59e9203c1f955a4621982a5a6d7c5f9f4f6de898b4"
      },
      "encounter": {
        "reference": "Encounter/50f75b06d3a7509c3bc56812dbdd47e96d5f4bf8e9a41fd9e691f1ee7e3102a4"
      },
      "effectiveDateTime": "2020-10-22T19:54:00+00:00",
      "valueQuantity": {
        "value": 36.146041199720024,
        "unit": "U/L",
        "system": "http://unitsofmeasure.org",
        "code": "U/L"
      }
    },
    "request": {
      "method": "POST",
      "url": "Observation",
      "ifNoneExist": "identifier=https://mein.krankenhaus.de/fhir/NamingSystem/observationId|96141e64a39930d5c32381b6f7deae80e6e1bfadb3ef8b5f8e4da7a4f3f3b05e"
    }
  }, {
    "fullUrl": "Observation/08bc7785ec706148ee3e3bb21d8f036e1c451162379053254a228c64aebbfe0e",
    "resource": {
      "resourceType": "Observation",
      "meta": {
        "profile": [ "https://www.medizininformatik-initiative.de/fhir/core/modul-labor/StructureDefinition/ObservationLab" ]
      },
      "identifier": [ {
        "type": {
          "coding": [ {
            "system": "http://terminology.hl7.org/CodeSystem/v2-0203",
            "code": "OBI",
            "display": "Observation Instance Identifier"
          } ]
        },
        "system": "https://mein.krankenhaus.de/fhir/NamingSystem/observationId",
        "value": "42b57c9aafe892d3f9f70d49df9121e3222d9d6fff0c02d6b6bc52fb67fdd575",
        "assigner": {
          "reference": "Organization/3a4f3433bce81181bad2d8e0b8fafccf7dc800bc06f29be73dcb38b750a48f9a"
        }
      } ],
      "status": "final",
      "category": [ {
        "coding": [ {
          "system": "http://terminology.hl7.org/CodeSystem/observation-category",
          "code": "laboratory",
          "display": "Laboratory"
        }, {
          "system": "http://loinc.org",
          "code": "26436-6"
        } ]
      } ],
      "code": {
        "coding": [ {
          "system": "http://loinc.org",
          "code": "42757-5",
          "display": "troponin-i.cardiac-in-blood"
        } ],
        "text": "kardiale_troponine"
      },
      "subject": {
        "reference": "Patient/fa1fbf193f4c51fc106add59e9203c1f955a4621982a5a6d7c5f9f4f6de898b4"
      },
      "encounter": {
        "reference": "Encounter/50f75b06d3a7509c3bc56812dbdd47e96d5f4bf8e9a41fd9e691f1ee7e3102a4"
      },
      "effectiveDateTime": "2020-10-22T19:54:00+00:00",
      "valueQuantity": {
        "value": 61.22623992553361,
        "unit": "ng/L",
        "system": "http://unitsofmeasure.org",
        "code": "ng/L"
      }
    },
    "request": {
      "method": "POST",
      "url": "Observation",
      "ifNoneExist": "identifier=https://mein.krankenhaus.de/fhir/NamingSystem/observationId|08bc7785ec706148ee3e3bb21d8f036e1c451162379053254a228c64aebbfe0e"
    }
  }, {
    "fullUrl": "Observation/82dffa56b6acd24d6d1ef5a61747ea3ebd0e876c5870653cd2d06930b08c1def",
    "resource": {
      "resourceType": "Observation",
      "meta": {
        "profile": [ "https://www.medizininformatik-initiative.de/fhir/core/modul-labor/StructureDefinition/ObservationLab" ]
      },
      "identifier": [ {
        "type": {
          "coding": [ {
            "system": "http://terminology.hl7.org/CodeSystem/v2-0203",
            "code": "OBI",
            "display": "Observation Instance Identifier"
          } ]
        },
        "system": "https://mein.krankenhaus.de/fhir/NamingSystem/observationId",
        "value": "fdcc5db609062c145ecc64b1ba7ef719832f7ebbe753525ddb429c71bee1d207",
        "assigner": {
          "reference": "Organization/3a4f3433bce81181bad2d8e0b8fafccf7dc800bc06f29be73dcb38b750a48f9a"
        }
      } ],
      "status": "final",
      "category": [ {
        "coding": [ {
          "system": "http://terminology.hl7.org/CodeSystem/observation-category",
          "code": "laboratory",
          "display": "Laboratory"
        }, {
          "system": "http://loinc.org",
          "code": "26436-6"
        } ]
      } ],
      "code": {
        "coding": [ {
          "system": "http://loinc.org",
          "code": "75928-2",
          "display": "hemoglobin-in-arterial-blood"
        } ],
        "text": "hamoglobin"
      },
      "subject": {
        "reference": "Patient/fa1fbf193f4c51fc106add59e9203c1f955a4621982a5a6d7c5f9f4f6de898b4"
      },
      "encounter": {
        "reference": "Encounter/50f75b06d3a7509c3bc56812dbdd47e96d5f4bf8e9a41fd9e691f1ee7e3102a4"
      },
      "effectiveDateTime": "2020-10-22T19:54:00+00:00",
      "valueQuantity": {
        "value": 72.83849949311633,
        "unit": "mmol/L",
        "system": "http://unitsofmeasure.org",
        "code": "mmol/L"
      }
    },
    "request": {
      "method": "POST",
      "url": "Observation",
      "ifNoneExist": "identifier=https://mein.krankenhaus.de/fhir/NamingSystem/observationId|82dffa56b6acd24d6d1ef5a61747ea3ebd0e876c5870653cd2d06930b08c1def"
    }
  }, {
    "fullUrl": "Observation/5946e16ae31aa7f3fb928ff8040bc0ad78bcf5b9db64712a7c174c3dc97b3db5",
    "resource": {
      "resourceType": "Observation",
      "meta": {
        "profile": [ "https://www.medizininformatik-initiative.de/fhir/core/modul-labor/StructureDefinition/ObservationLab" ]
      },
      "identifier": [ {
        "type": {
          "coding": [ {
            "system": "http://terminology.hl7.org/CodeSystem/v2-0203",
            "code": "OBI",
            "display": "Observation Instance Identifier"
          } ]
        },
        "system": "https://mein.krankenhaus.de/fhir/NamingSystem/observationId",
        "value": "efddbcab7b201f79092a718380b1b84b5778a6bf3db3c0013d0bc3eb9d146f74",
        "assigner": {
          "reference": "Organization/3a4f3433bce81181bad2d8e0b8fafccf7dc800bc06f29be73dcb38b750a48f9a"
        }
      } ],
      "status": "final",
      "category": [ {
        "coding": [ {
          "system": "http://terminology.hl7.org/CodeSystem/observation-category",
          "code": "laboratory",
          "display": "Laboratory"
        }, {
          "system": "http://loinc.org",
          "code": "26436-6"
        } ]
      } ],
      "code": {
        "coding": [ {
          "system": "http://loinc.org",
          "code": "25386-4",
          "display": "creatinine-in-body-fluid"
        } ],
        "text": "kreatinin"
      },
      "subject": {
        "reference": "Patient/fa1fbf193f4c51fc106add59e9203c1f955a4621982a5a6d7c5f9f4f6de898b4"
      },
      "encounter": {
        "reference": "Encounter/50f75b06d3a7509c3bc56812dbdd47e96d5f4bf8e9a41fd9e691f1ee7e3102a4"
      },
      "effectiveDateTime": "2020-10-22T19:54:00+00:00",
      "valueQuantity": {
        "value": 5.695293410725666,
        "unit": "umol/L",
        "system": "http://unitsofmeasure.org",
        "code": "umol/L"
      }
    },
    "request": {
      "method": "POST",
      "url": "Observation",
      "ifNoneExist": "identifier=https://mein.krankenhaus.de/fhir/NamingSystem/observationId|5946e16ae31aa7f3fb928ff8040bc0ad78bcf5b9db64712a7c174c3dc97b3db5"
    }
  }, {
    "fullUrl": "Observation/c68bccf3f8257d13b2d613e6929d93d3b209d4736135edd714e65011d8fbbc0e",
    "resource": {
      "resourceType": "Observation",
      "meta": {
        "profile": [ "https://www.medizininformatik-initiative.de/fhir/core/modul-labor/StructureDefinition/ObservationLab" ]
      },
      "identifier": [ {
        "type": {
          "coding": [ {
            "system": "http://terminology.hl7.org/CodeSystem/v2-0203",
            "code": "OBI",
            "display": "Observation Instance Identifier"
          } ]
        },
        "system": "https://mein.krankenhaus.de/fhir/NamingSystem/observationId",
        "value": "70537e5778ccde6f6ce7b0c5e067f661b7908aa2da494b7572616bba83ebef11",
        "assigner": {
          "reference": "Organization/3a4f3433bce81181bad2d8e0b8fafccf7dc800bc06f29be73dcb38b750a48f9a"
        }
      } ],
      "status": "final",
      "category": [ {
        "coding": [ {
          "system": "http://terminology.hl7.org/CodeSystem/observation-category",
          "code": "laboratory",
          "display": "Laboratory"
        }, {
          "system": "http://loinc.org",
          "code": "26436-6"
        } ]
      } ],
      "code": {
        "coding": [ {
          "system": "http://loinc.org",
          "code": "2518-9",
          "display": "lactate-in-arterial-blood"
        } ],
        "text": "laktat"
      },
      "subject": {
        "reference": "Patient/fa1fbf193f4c51fc106add59e9203c1f955a4621982a5a6d7c5f9f4f6de898b4"
      },
      "encounter": {
        "reference": "Encounter/50f75b06d3a7509c3bc56812dbdd47e96d5f4bf8e9a41fd9e691f1ee7e3102a4"
      },
      "effectiveDateTime": "2020-10-22T19:54:00+00:00",
      "valueQuantity": {
        "value": 49.69129666912572,
        "unit": "mmol/L",
        "system": "http://unitsofmeasure.org",
        "code": "mmol/L"
      }
    },
    "request": {
      "method": "POST",
      "url": "Observation",
      "ifNoneExist": "identifier=https://mein.krankenhaus.de/fhir/NamingSystem/observationId|c68bccf3f8257d13b2d613e6929d93d3b209d4736135edd714e65011d8fbbc0e"
    }
  }, {
    "fullUrl": "Observation/ae113cadf1bb5413d5328776047e6f8866d0062c80e9047bb9c0bae1d3a22834",
    "resource": {
      "resourceType": "Observation",
      "meta": {
        "profile": [ "https://www.medizininformatik-initiative.de/fhir/core/modul-labor/StructureDefinition/ObservationLab" ]
      },
      "identifier": [ {
        "type": {
          "coding": [ {
            "system": "http://terminology.hl7.org/CodeSystem/v2-0203",
            "code": "OBI",
            "display": "Observation Instance Identifier"
          } ]
        },
        "system": "https://mein.krankenhaus.de/fhir/NamingSystem/observationId",
        "value": "737d70a487ddf7b0e7d529cda863a8df27614cbe20e0bdacccd73892bb2c1e66",
        "assigner": {
          "reference": "Organization/3a4f3433bce81181bad2d8e0b8fafccf7dc800bc06f29be73dcb38b750a48f9a"
        }
      } ],
      "status": "final",
      "category": [ {
        "coding": [ {
          "system": "http://terminology.hl7.org/CodeSystem/observation-category",
          "code": "laboratory",
          "display": "Laboratory"
        }, {
          "system": "http://loinc.org",
          "code": "26436-6"
        } ]
      } ],
      "code": {
        "coding": [ {
          "system": "http://loinc.org",
          "code": "804-5",
          "display": "leukocytes-in-blood-by-manual-count"
        } ],
        "text": "leukozyten_absolut"
      },
      "subject": {
        "reference": "Patient/fa1fbf193f4c51fc106add59e9203c1f955a4621982a5a6d7c5f9f4f6de898b4"
      },
      "encounter": {
        "reference": "Encounter/50f75b06d3a7509c3bc56812dbdd47e96d5f4bf8e9a41fd9e691f1ee7e3102a4"
      },
      "effectiveDateTime": "2020-10-22T19:54:00+00:00",
      "valueQuantity": {
        "value": 44.24152755658085,
        "unit": "10*3/uL",
        "system": "http://unitsofmeasure.org",
        "code": "10*3/uL"
      }
    },
    "request": {
      "method": "POST",
      "url": "Observation",
      "ifNoneExist": "identifier=https://mein.krankenhaus.de/fhir/NamingSystem/observationId|ae113cadf1bb5413d5328776047e6f8866d0062c80e9047bb9c0bae1d3a22834"
    }
  }, {
    "fullUrl": "Observation/5038b7f4f5283edb1cbae9d91a5660baa56ac6285ed524416d5c9a15afd03c37",
    "resource": {
      "resourceType": "Observation",
      "meta": {
        "profile": [ "https://www.medizininformatik-initiative.de/fhir/core/modul-labor/StructureDefinition/ObservationLab" ]
      },
      "identifier": [ {
        "type": {
          "coding": [ {
            "system": "http://terminology.hl7.org/CodeSystem/v2-0203",
            "code": "OBI",
            "display": "Observation Instance Identifier"
          } ]
        },
        "system": "https://mein.krankenhaus.de/fhir/NamingSystem/observationId",
        "value": "801441721c4601f9aa45d9fd9521d378bd25350f20a5a55a02a2e090b3b7069c",
        "assigner": {
          "reference": "Organization/3a4f3433bce81181bad2d8e0b8fafccf7dc800bc06f29be73dcb38b750a48f9a"
        }
      } ],
      "status": "final",
      "category": [ {
        "coding": [ {
          "system": "http://terminology.hl7.org/CodeSystem/observation-category",
          "code": "laboratory",
          "display": "Laboratory"
        }, {
          "system": "http://loinc.org",
          "code": "26436-6"
        } ]
      } ],
      "code": {
        "coding": [ {
          "system": "http://loinc.org",
          "code": "731-0",
          "display": "lymphocytes-in-blood-by-automated-count"
        } ],
        "text": "lymphozyten_absolut"
      },
      "subject": {
        "reference": "Patient/fa1fbf193f4c51fc106add59e9203c1f955a4621982a5a6d7c5f9f4f6de898b4"
      },
      "encounter": {
        "reference": "Encounter/50f75b06d3a7509c3bc56812dbdd47e96d5f4bf8e9a41fd9e691f1ee7e3102a4"
      },
      "effectiveDateTime": "2020-10-22T19:54:00+00:00",
      "valueQuantity": {
        "value": 38.30157273446685,
        "unit": "10*3/uL",
        "system": "http://unitsofmeasure.org",
        "code": "10*3/uL"
      }
    },
    "request": {
      "method": "POST",
      "url": "Observation",
      "ifNoneExist": "identifier=https://mein.krankenhaus.de/fhir/NamingSystem/observationId|5038b7f4f5283edb1cbae9d91a5660baa56ac6285ed524416d5c9a15afd03c37"
    }
  }, {
    "fullUrl": "Observation/5b6024be62d64bc13e67626616ca03526f52822d95e6928e713cbfaedbeff3f6",
    "resource": {
      "resourceType": "Observation",
      "meta": {
        "profile": [ "https://www.medizininformatik-initiative.de/fhir/core/modul-labor/StructureDefinition/ObservationLab" ]
      },
      "identifier": [ {
        "type": {
          "coding": [ {
            "system": "http://terminology.hl7.org/CodeSystem/v2-0203",
            "code": "OBI",
            "display": "Observation Instance Identifier"
          } ]
        },
        "system": "https://mein.krankenhaus.de/fhir/NamingSystem/observationId",
        "value": "b9bfa4d4f5de6ee8757f1112d38c499dd5525f775495928f5864455b44c84169",
        "assigner": {
          "reference": "Organization/3a4f3433bce81181bad2d8e0b8fafccf7dc800bc06f29be73dcb38b750a48f9a"
        }
      } ],
      "status": "final",
      "category": [ {
        "coding": [ {
          "system": "http://terminology.hl7.org/CodeSystem/observation-category",
          "code": "laboratory",
          "display": "Laboratory"
        }, {
          "system": "http://loinc.org",
          "code": "26436-6"
        } ]
      } ],
      "code": {
        "coding": [ {
          "system": "http://loinc.org",
          "code": "753-4",
          "display": "neutrophils-in-blood-by-manual-count"
        } ],
        "text": "neutrophile_absolut"
      },
      "subject": {
        "reference": "Patient/fa1fbf193f4c51fc106add59e9203c1f955a4621982a5a6d7c5f9f4f6de898b4"
      },
      "encounter": {
        "reference": "Encounter/50f75b06d3a7509c3bc56812dbdd47e96d5f4bf8e9a41fd9e691f1ee7e3102a4"
      },
      "effectiveDateTime": "2020-10-22T19:54:00+00:00",
      "valueQuantity": {
        "value": 99.70164396387773,
        "unit": "10*3/uL",
        "system": "http://unitsofmeasure.org",
        "code": "10*3/uL"
      }
    },
    "request": {
      "method": "POST",
      "url": "Observation",
      "ifNoneExist": "identifier=https://mein.krankenhaus.de/fhir/NamingSystem/observationId|5b6024be62d64bc13e67626616ca03526f52822d95e6928e713cbfaedbeff3f6"
    }
  }, {
    "fullUrl": "Observation/6cb5ec9c42abd817c3057f8276660230d753842a48c66313ca65742c62ed18ba",
    "resource": {
      "resourceType": "Observation",
      "meta": {
        "profile": [ "https://www.medizininformatik-initiative.de/fhir/core/modul-labor/StructureDefinition/ObservationLab" ]
      },
      "identifier": [ {
        "type": {
          "coding": [ {
            "system": "http://terminology.hl7.org/CodeSystem/v2-0203",
            "code": "OBI",
            "display": "Observation Instance Identifier"
          } ]
        },
        "system": "https://mein.krankenhaus.de/fhir/NamingSystem/observationId",
        "value": "f4a11439da194b206b808be6bb917af3193cd49c4c3fde82311a093c1c67ac58",
        "assigner": {
          "reference": "Organization/3a4f3433bce81181bad2d8e0b8fafccf7dc800bc06f29be73dcb38b750a48f9a"
        }
      } ],
      "status": "final",
      "category": [ {
        "coding": [ {
          "system": "http://terminology.hl7.org/CodeSystem/observation-category",
          "code": "laboratory",
          "display": "Laboratory"
        }, {
          "system": "http://loinc.org",
          "code": "26436-6"
        } ]
      } ],
      "code": {
        "coding": [ {
          "system": "http://loinc.org",
          "code": "3173-2",
          "display": "aptt-in-blood-by-coagulation-assay"
        } ],
        "text": "ptt"
      },
      "subject": {
        "reference": "Patient/fa1fbf193f4c51fc106add59e9203c1f955a4621982a5a6d7c5f9f4f6de898b4"
      },
      "encounter": {
        "reference": "Encounter/50f75b06d3a7509c3bc56812dbdd47e96d5f4bf8e9a41fd9e691f1ee7e3102a4"
      },
      "effectiveDateTime": "2020-10-22T19:54:00+00:00",
      "valueQuantity": {
        "value": 96.46479994947782,
        "unit": "s",
        "system": "http://unitsofmeasure.org",
        "code": "s"
      }
    },
    "request": {
      "method": "POST",
      "url": "Observation",
      "ifNoneExist": "identifier=https://mein.krankenhaus.de/fhir/NamingSystem/observationId|6cb5ec9c42abd817c3057f8276660230d753842a48c66313ca65742c62ed18ba"
    }
  }, {
    "fullUrl": "Observation/4e8bf38ec0fe7c0292b6647ccb57ef2de44542adb0b64c43e3b15c63848cdc6e",
    "resource": {
      "resourceType": "Observation",
      "meta": {
        "profile": [ "https://www.medizininformatik-initiative.de/fhir/core/modul-labor/StructureDefinition/ObservationLab" ]
      },
      "identifier": [ {
        "type": {
          "coding": [ {
            "system": "http://terminology.hl7.org/CodeSystem/v2-0203",
            "code": "OBI",
            "display": "Observation Instance Identifier"
          } ]
        },
        "system": "https://mein.krankenhaus.de/fhir/NamingSystem/observationId",
        "value": "96cb21b1ba68569a94a4110a6df9544db5cc3732a4d59fa5edc71b743f503650",
        "assigner": {
          "reference": "Organization/3a4f3433bce81181bad2d8e0b8fafccf7dc800bc06f29be73dcb38b750a48f9a"
        }
      } ],
      "status": "final",
      "category": [ {
        "coding": [ {
          "system": "http://terminology.hl7.org/CodeSystem/observation-category",
          "code": "laboratory",
          "display": "Laboratory"
        }, {
          "system": "http://loinc.org",
          "code": "26436-6"
        } ]
      } ],
      "code": {
        "coding": [ {
          "system": "http://loinc.org",
          "code": "49497-1",
          "display": "platelets-in-blood-by-estimate"
        } ],
        "text": "thrombozyten_absolut"
      },
      "subject": {
        "reference": "Patient/fa1fbf193f4c51fc106add59e9203c1f955a4621982a5a6d7c5f9f4f6de898b4"
      },
      "encounter": {
        "reference": "Encounter/50f75b06d3a7509c3bc56812dbdd47e96d5f4bf8e9a41fd9e691f1ee7e3102a4"
      },
      "effectiveDateTime": "2020-10-22T19:54:00+00:00",
      "valueQuantity": {
        "value": 34.328545417667556,
        "unit": "10*3/uL",
        "system": "http://unitsofmeasure.org",
        "code": "10*3/uL"
      }
    },
    "request": {
      "method": "POST",
      "url": "Observation",
      "ifNoneExist": "identifier=https://mein.krankenhaus.de/fhir/NamingSystem/observationId|4e8bf38ec0fe7c0292b6647ccb57ef2de44542adb0b64c43e3b15c63848cdc6e"
    }
  }, {
    "fullUrl": "Observation/60d14e16a05ab8186f8c6f764768ed1ba6ed1e41697766abb7dcb061f010a9f1",
    "resource": {
      "resourceType": "Observation",
      "meta": {
        "profile": [ "https://www.medizininformatik-initiative.de/fhir/core/modul-labor/StructureDefinition/ObservationLab" ]
      },
      "identifier": [ {
        "type": {
          "coding": [ {
            "system": "http://terminology.hl7.org/CodeSystem/v2-0203",
            "code": "OBI",
            "display": "Observation Instance Identifier"
          } ]
        },
        "system": "https://mein.krankenhaus.de/fhir/NamingSystem/observationId",
        "value": "ebbf271795fed34d56c82391b09155e1d02a96b1352ec256440d877603e011a5",
        "assigner": {
          "reference": "Organization/3a4f3433bce81181bad2d8e0b8fafccf7dc800bc06f29be73dcb38b750a48f9a"
        }
      } ],
      "status": "final",
      "category": [ {
        "coding": [ {
          "system": "http://terminology.hl7.org/CodeSystem/observation-category",
          "code": "laboratory",
          "display": "Laboratory"
        }, {
          "system": "http://loinc.org",
          "code": "26436-6"
        } ]
      } ],
      "code": {
        "coding": [ {
          "system": "http://loinc.org",
          "code": "6301-6",
          "display": "inr-in-platelet-poor-plasma-by-coagulation-assay"
        } ],
        "text": "inr"
      },
      "subject": {
        "reference": "Patient/fa1fbf193f4c51fc106add59e9203c1f955a4621982a5a6d7c5f9f4f6de898b4"
      },
      "encounter": {
        "reference": "Encounter/50f75b06d3a7509c3bc56812dbdd47e96d5f4bf8e9a41fd9e691f1ee7e3102a4"
      },
      "effectiveDateTime": "2020-10-22T19:54:00+00:00",
      "valueQuantity": {
        "value": 63.150883643086416,
        "unit": "{INR}",
        "system": "http://unitsofmeasure.org",
        "code": "{INR}"
      }
    },
    "request": {
      "method": "POST",
      "url": "Observation",
      "ifNoneExist": "identifier=https://mein.krankenhaus.de/fhir/NamingSystem/observationId|60d14e16a05ab8186f8c6f764768ed1ba6ed1e41697766abb7dcb061f010a9f1"
    }
  }, {
    "fullUrl": "Observation/8d4cb10fde0d7ca88a912543f1e2aa9bc057ba4f3dc0287430cd6b5e19f19003",
    "resource": {
      "resourceType": "Observation",
      "meta": {
        "profile": [ "https://www.medizininformatik-initiative.de/fhir/core/modul-labor/StructureDefinition/ObservationLab" ]
      },
      "identifier": [ {
        "type": {
          "coding": [ {
            "system": "http://terminology.hl7.org/CodeSystem/v2-0203",
            "code": "OBI",
            "display": "Observation Instance Identifier"
          } ]
        },
        "system": "https://mein.krankenhaus.de/fhir/NamingSystem/observationId",
        "value": "5b83962e2ef359561146f973651a44346157b041ee791fbb854767941786ef9a",
        "assigner": {
          "reference": "Organization/3a4f3433bce81181bad2d8e0b8fafccf7dc800bc06f29be73dcb38b750a48f9a"
        }
      } ],
      "status": "final",
      "category": [ {
        "coding": [ {
          "system": "http://terminology.hl7.org/CodeSystem/observation-category",
          "code": "laboratory",
          "display": "Laboratory"
        }, {
          "system": "http://loinc.org",
          "code": "26436-6"
        } ]
      } ],
      "code": {
        "coding": [ {
          "system": "http://loinc.org",
          "code": "2862-1",
          "display": "albumin-in-serum-or-plasma-by-electrophoresis"
        } ],
        "text": "serumalbumin"
      },
      "subject": {
        "reference": "Patient/fa1fbf193f4c51fc106add59e9203c1f955a4621982a5a6d7c5f9f4f6de898b4"
      },
      "encounter": {
        "reference": "Encounter/50f75b06d3a7509c3bc56812dbdd47e96d5f4bf8e9a41fd9e691f1ee7e3102a4"
      },
      "effectiveDateTime": "2020-10-22T19:54:00+00:00",
      "valueQuantity": {
        "value": 39.54158928787827,
        "unit": "g/L",
        "system": "http://unitsofmeasure.org",
        "code": "g/L"
      }
    },
    "request": {
      "method": "POST",
      "url": "Observation",
      "ifNoneExist": "identifier=https://mein.krankenhaus.de/fhir/NamingSystem/observationId|8d4cb10fde0d7ca88a912543f1e2aa9bc057ba4f3dc0287430cd6b5e19f19003"
    }
  }, {
    "fullUrl": "Observation/c1c936d3cb7ccd2951147d2ab370d670773aaf01f46876b5020115ea2faef184",
    "resource": {
      "resourceType": "Observation",
      "meta": {
        "profile": [ "https://www.medizininformatik-initiative.de/fhir/core/modul-labor/StructureDefinition/ObservationLab" ]
      },
      "identifier": [ {
        "type": {
          "coding": [ {
            "system": "http://terminology.hl7.org/CodeSystem/v2-0203",
            "code": "OBI",
            "display": "Observation Instance Identifier"
          } ]
        },
        "system": "https://mein.krankenhaus.de/fhir/NamingSystem/observationId",
        "value": "332a5a08dc7f6aae78b12d7b0d2afc332f842e511e4036ee8ff37ca2f9e6e298",
        "assigner": {
          "reference": "Organization/3a4f3433bce81181bad2d8e0b8fafccf7dc800bc06f29be73dcb38b750a48f9a"
        }
      } ],
      "status": "final",
      "category": [ {
        "coding": [ {
          "system": "http://terminology.hl7.org/CodeSystem/observation-category",
          "code": "laboratory",
          "display": "Laboratory"
        }, {
          "system": "http://loinc.org",
          "code": "26436-6"
        } ]
      } ],
      "code": {
        "coding": [ {
          "system": "http://loinc.org",
          "code": "27812-7",
          "display": "antithrombin-ag-actual-normal-in-platelet-poor-plasma-by-immunoassay"
        } ],
        "text": "antithrombin_iii"
      },
      "subject": {
        "reference": "Patient/fa1fbf193f4c51fc106add59e9203c1f955a4621982a5a6d7c5f9f4f6de898b4"
      },
      "encounter": {
        "reference": "Encounter/50f75b06d3a7509c3bc56812dbdd47e96d5f4bf8e9a41fd9e691f1ee7e3102a4"
      },
      "effectiveDateTime": "2020-10-22T19:54:00+00:00",
      "valueQuantity": {
        "value": 35.83902560357484,
        "unit": "%",
        "system": "http://unitsofmeasure.org",
        "code": "%"
      }
    },
    "request": {
      "method": "POST",
      "url": "Observation",
      "ifNoneExist": "identifier=https://mein.krankenhaus.de/fhir/NamingSystem/observationId|c1c936d3cb7ccd2951147d2ab370d670773aaf01f46876b5020115ea2faef184"
    }
  }, {
    "fullUrl": "Observation/2877ae4212e4bd95bcf7ec21f4c222e578430d40c1f217cc2c14733c7ed58f76",
    "resource": {
      "resourceType": "Observation",
      "meta": {
        "profile": [ "https://www.medizininformatik-initiative.de/fhir/core/modul-labor/StructureDefinition/ObservationLab" ]
      },
      "identifier": [ {
        "type": {
          "coding": [ {
            "system": "http://terminology.hl7.org/CodeSystem/v2-0203",
            "code": "OBI",
            "display": "Observation Instance Identifier"
          } ]
        },
        "system": "https://mein.krankenhaus.de/fhir/NamingSystem/observationId",
        "value": "5cf2664e9b2656364047ccc879fdde42987e137d31f8047e40d6f9df36e70f86",
        "assigner": {
          "reference": "Organization/3a4f3433bce81181bad2d8e0b8fafccf7dc800bc06f29be73dcb38b750a48f9a"
        }
      } ],
      "status": "final",
      "category": [ {
        "coding": [ {
          "system": "http://terminology.hl7.org/CodeSystem/observation-category",
          "code": "laboratory",
          "display": "Laboratory"
        }, {
          "system": "http://loinc.org",
          "code": "26436-6"
        } ]
      } ],
      "code": {
        "coding": [ {
          "system": "http://loinc.org",
          "code": "33959-8",
          "display": "procalcitonin-in-serum-or-plasma"
        } ],
        "text": "pct_procalcitonin"
      },
      "subject": {
        "reference": "Patient/fa1fbf193f4c51fc106add59e9203c1f955a4621982a5a6d7c5f9f4f6de898b4"
      },
      "encounter": {
        "reference": "Encounter/50f75b06d3a7509c3bc56812dbdd47e96d5f4bf8e9a41fd9e691f1ee7e3102a4"
      },
      "effectiveDateTime": "2020-10-22T19:54:00+00:00",
      "valueQuantity": {
        "value": 64.4074218906478,
        "unit": "ng/mL",
        "system": "http://unitsofmeasure.org",
        "code": "ng/mL"
      }
    },
    "request": {
      "method": "POST",
      "url": "Observation",
      "ifNoneExist": "identifier=https://mein.krankenhaus.de/fhir/NamingSystem/observationId|2877ae4212e4bd95bcf7ec21f4c222e578430d40c1f217cc2c14733c7ed58f76"
    }
  }, {
    "fullUrl": "Observation/2ee5930e7f6dc0c0ab133be095073997098944c0403897ecb81333e8e33aab12",
    "resource": {
      "resourceType": "Observation",
      "meta": {
        "profile": [ "https://www.medizininformatik-initiative.de/fhir/core/modul-labor/StructureDefinition/ObservationLab" ]
      },
      "identifier": [ {
        "type": {
          "coding": [ {
            "system": "http://terminology.hl7.org/CodeSystem/v2-0203",
            "code": "OBI",
            "display": "Observation Instance Identifier"
          } ]
        },
        "system": "https://mein.krankenhaus.de/fhir/NamingSystem/observationId",
        "value": "e805ade16d87cf5b0866ce6b70dc063102008e1d809ce6caef36aa8ca3aad7b3",
        "assigner": {
          "reference": "Organization/3a4f3433bce81181bad2d8e0b8fafccf7dc800bc06f29be73dcb38b750a48f9a"
        }
      } ],
      "status": "final",
      "category": [ {
        "coding": [ {
          "system": "http://terminology.hl7.org/CodeSystem/observation-category",
          "code": "laboratory",
          "display": "Laboratory"
        }, {
          "system": "http://loinc.org",
          "code": "26436-6"
        } ]
      } ],
      "code": {
        "coding": [ {
          "system": "http://loinc.org",
          "code": "44322-6",
          "display": "interleukin-6-in-serum-or-plasma"
        } ],
        "text": "il6_interleukin_6"
      },
      "subject": {
        "reference": "Patient/fa1fbf193f4c51fc106add59e9203c1f955a4621982a5a6d7c5f9f4f6de898b4"
      },
      "encounter": {
        "reference": "Encounter/50f75b06d3a7509c3bc56812dbdd47e96d5f4bf8e9a41fd9e691f1ee7e3102a4"
      },
      "effectiveDateTime": "2020-10-22T19:54:00+00:00",
      "valueQuantity": {
        "value": 63.106685020033574,
        "unit": "pg/mL",
        "system": "http://unitsofmeasure.org",
        "code": "pg/mL"
      }
    },
    "request": {
      "method": "POST",
      "url": "Observation",
      "ifNoneExist": "identifier=https://mein.krankenhaus.de/fhir/NamingSystem/observationId|2ee5930e7f6dc0c0ab133be095073997098944c0403897ecb81333e8e33aab12"
    }
  }, {
    "fullUrl": "Observation/b2a5e3ec9efb939a1917389e7cea76dbd23337ce57504a2d2d1f85ac3e0eabe7",
    "resource": {
      "resourceType": "Observation",
      "meta": {
        "profile": [ "https://www.medizininformatik-initiative.de/fhir/core/modul-labor/StructureDefinition/ObservationLab" ]
      },
      "identifier": [ {
        "type": {
          "coding": [ {
            "system": "http://terminology.hl7.org/CodeSystem/v2-0203",
            "code": "OBI",
            "display": "Observation Instance Identifier"
          } ]
        },
        "system": "https://mein.krankenhaus.de/fhir/NamingSystem/observationId",
        "value": "a6f087789ce6541cf822ab4781dfc3368799e0e34f7fe343dc65522bec170a2a",
        "assigner": {
          "reference": "Organization/3a4f3433bce81181bad2d8e0b8fafccf7dc800bc06f29be73dcb38b750a48f9a"
        }
      } ],
      "status": "final",
      "category": [ {
        "coding": [ {
          "system": "http://terminology.hl7.org/CodeSystem/observation-category",
          "code": "laboratory",
          "display": "Laboratory"
        }, {
          "system": "http://loinc.org",
          "code": "26436-6"
        } ]
      } ],
      "code": {
        "coding": [ {
          "system": "http://loinc.org",
          "code": "33762-6",
          "display": "natriuretic-peptide.b-prohormone-n-terminal-in-serum-or-plasma"
        } ],
        "text": "ntprobnp"
      },
      "subject": {
        "reference": "Patient/fa1fbf193f4c51fc106add59e9203c1f955a4621982a5a6d7c5f9f4f6de898b4"
      },
      "encounter": {
        "reference": "Encounter/50f75b06d3a7509c3bc56812dbdd47e96d5f4bf8e9a41fd9e691f1ee7e3102a4"
      },
      "effectiveDateTime": "2020-10-22T19:54:00+00:00",
      "valueQuantity": {
        "value": 91.43506772971855,
        "unit": "pg/mL",
        "system": "http://unitsofmeasure.org",
        "code": "pg/mL"
      }
    },
    "request": {
      "method": "POST",
      "url": "Observation",
      "ifNoneExist": "identifier=https://mein.krankenhaus.de/fhir/NamingSystem/observationId|b2a5e3ec9efb939a1917389e7cea76dbd23337ce57504a2d2d1f85ac3e0eabe7"
    }
  }, {
    "fullUrl": "Observation/880c74dc69870ae94fdd764a2c7b4e54c6ac8fcf557a1ee678cf036365d39855",
    "resource": {
      "resourceType": "Observation",
      "meta": {
        "profile": [ "https://www.medizininformatik-initiative.de/fhir/core/modul-labor/StructureDefinition/ObservationLab" ]
      },
      "identifier": [ {
        "type": {
          "coding": [ {
            "system": "http://terminology.hl7.org/CodeSystem/v2-0203",
            "code": "OBI",
            "display": "Observation Instance Identifier"
          } ]
        },
        "system": "https://mein.krankenhaus.de/fhir/NamingSystem/observationId",
        "value": "464e379b6bbd0ca22b3fc6d732616b4fa05c8b26ad997dbf4ece1f54690a66b9",
        "assigner": {
          "reference": "Organization/3a4f3433bce81181bad2d8e0b8fafccf7dc800bc06f29be73dcb38b750a48f9a"
        }
      } ],
      "status": "final",
      "category": [ {
        "coding": [ {
          "system": "http://terminology.hl7.org/CodeSystem/observation-category",
          "code": "laboratory",
          "display": "Laboratory"
        }, {
          "system": "http://loinc.org",
          "code": "26436-6"
        } ]
      } ],
      "code": {
        "coding": [ {
          "system": "http://loinc.org",
          "code": "3255-7",
          "display": "fibrinogen-in-platelet-poor-plasma-by-coagulation-assay"
        } ],
        "text": "fibrinogen"
      },
      "subject": {
        "reference": "Patient/fa1fbf193f4c51fc106add59e9203c1f955a4621982a5a6d7c5f9f4f6de898b4"
      },
      "encounter": {
        "reference": "Encounter/50f75b06d3a7509c3bc56812dbdd47e96d5f4bf8e9a41fd9e691f1ee7e3102a4"
      },
      "effectiveDateTime": "2020-10-22T19:54:00+00:00",
      "valueQuantity": {
        "value": 31.91129437272512,
        "unit": "mg/dL",
        "system": "http://unitsofmeasure.org",
        "code": "mg/dL"
      }
    },
    "request": {
      "method": "POST",
      "url": "Observation",
      "ifNoneExist": "identifier=https://mein.krankenhaus.de/fhir/NamingSystem/observationId|880c74dc69870ae94fdd764a2c7b4e54c6ac8fcf557a1ee678cf036365d39855"
    }
  }, {
    "fullUrl": "Observation/623f3b2ecb4cde1b5a46f2b0d57cc50b467f0a3e746a7b05b35fa481b592c91c",
    "resource": {
      "resourceType": "Observation",
      "meta": {
        "profile": [ "https://www.netzwerk-universitaetsmedizin.de/fhir/StructureDefinition/sars-cov-2-rt-pcr" ]
      },
      "identifier": [ {
        "type": {
          "coding": [ {
            "system": "http://terminology.hl7.org/CodeSystem/v2-0203",
            "code": "OBI",
            "display": "Observation Instance Identifier"
          } ]
        },
        "system": "https://mein.krankenhaus.de/fhir/NamingSystem/observationId",
        "value": "8c1aa6b97851ef7f4d8a9836a51333f5ef970f33515ff9ce31377aed85143232",
        "assigner": {
          "reference": "Organization/3a4f3433bce81181bad2d8e0b8fafccf7dc800bc06f29be73dcb38b750a48f9a"
        }
      } ],
      "status": "final",
      "category": [ {
        "coding": [ {
          "system": "http://terminology.hl7.org/CodeSystem/observation-category",
          "code": "laboratory",
          "display": "Laboratory"
        }, {
          "system": "http://loinc.org",
          "code": "26436-6"
        } ]
      } ],
      "code": {
        "coding": [ {
          "system": "http://loinc.org",
          "code": "94500-6",
          "display": "sars-cov-2-covid-19-rna-in-respiratory-specimen-by-naa-with-probe-detection"
        } ],
        "text": "SARS-CoV-2-RNA (PCR)"
      },
      "subject": {
        "reference": "Patient/fa1fbf193f4c51fc106add59e9203c1f955a4621982a5a6d7c5f9f4f6de898b4"
      },
      "encounter": {
        "reference": "Encounter/50f75b06d3a7509c3bc56812dbdd47e96d5f4bf8e9a41fd9e691f1ee7e3102a4"
      },
      "effectiveDateTime": "2020-10-22T19:54:00+00:00",
      "valueCodeableConcept": {
        "coding": [ {
          "system": "http://snomed.info/sct",
          "code": "419984006",
          "display": "Inconclusive (qualifier value)"
        } ],
        "text": "SARS-CoV-2-RNA nicht eindeutig"
      }
    },
    "request": {
      "method": "POST",
      "url": "Observation",
      "ifNoneExist": "identifier=https://mein.krankenhaus.de/fhir/NamingSystem/observationId|623f3b2ecb4cde1b5a46f2b0d57cc50b467f0a3e746a7b05b35fa481b592c91c"
    }
  }, {
    "fullUrl": "Observation/4f118cbcc5f3371ed7448ac85b7b871108ade4deabe214f77907fe5fea681c21",
    "resource": {
      "resourceType": "Observation",
      "meta": {
        "profile": [ "https://www.netzwerk-universitaetsmedizin.de/fhir/StructureDefinition/sars-cov-2-ab-pnl-ser-pl-ia" ]
      },
      "identifier": [ {
        "type": {
          "coding": [ {
            "system": "http://terminology.hl7.org/CodeSystem/v2-0203",
            "code": "OBI",
            "display": "Observation Instance Identifier"
          } ]
        },
        "system": "https://mein.krankenhaus.de/fhir/NamingSystem/observationId",
        "value": "86aeb36604f7cfe268f3d4b1e4cf2636418f49f4fc568af1b84e526df4fe4460",
        "assigner": {
          "reference": "Organization/3a4f3433bce81181bad2d8e0b8fafccf7dc800bc06f29be73dcb38b750a48f9a"
        }
      } ],
      "status": "final",
      "category": [ {
        "coding": [ {
          "system": "http://terminology.hl7.org/CodeSystem/observation-category",
          "code": "laboratory",
          "display": "Laboratory"
        }, {
          "system": "http://loinc.org",
          "code": "26436-6"
        } ]
      } ],
      "code": {
        "coding": [ {
          "system": "http://loinc.org",
          "code": "94504-8"
        } ],
        "text": "sarsco_v2_covid19_ab_pnl"
      },
      "subject": {
        "reference": "Patient/fa1fbf193f4c51fc106add59e9203c1f955a4621982a5a6d7c5f9f4f6de898b4"
      },
      "encounter": {
        "reference": "Encounter/50f75b06d3a7509c3bc56812dbdd47e96d5f4bf8e9a41fd9e691f1ee7e3102a4"
      },
      "effectiveDateTime": "2020-10-22T19:54:00+00:00",
      "hasMember": [ {
        "reference": "Observation/1143e158e02bcabb6cf01c29c19c0aab9bec355783d25d6d3afd31fa3773bbb3"
      }, {
        "reference": "Observation/9cddac841061dad4cd9f9c6f9d4d33c1f8c649de9b60fc35c9d378959ee10119"
      }, {
        "reference": "Observation/f5475d79772fbb79b5813137f34fa11614eece154099e19b7d83e8e628cdab30"
      }, {
        "reference": "Observation/cd672e61b304bdbfae6c365293f59acb30e192244ec0a426596155acf03c7854"
      }, {
        "reference": "Observation/e442bb42f91fe6104346f244f185dc5baeece5a1a7af25c0b509e6fc7d939b8e"
      }, {
        "reference": "Observation/4286828b9c13f21af5d7154fb9f9a22d7e72045a7c2e9815ca6847ee9efeb388"
      }, {
        "reference": "Observation/e3f929318dc931a15e03f754780f5e1d3c31f5a3099d805ebb3fef626152acb5"
      }, {
        "reference": "Observation/dbba950973799c62f9260df404590427180ad9748ae37bc3dc259bd1913bdb26"
      } ]
    },
    "request": {
      "method": "POST",
      "url": "Observation",
      "ifNoneExist": "identifier=https://mein.krankenhaus.de/fhir/NamingSystem/observationId|4f118cbcc5f3371ed7448ac85b7b871108ade4deabe214f77907fe5fea681c21"
    }
  }, {
    "fullUrl": "Observation/1143e158e02bcabb6cf01c29c19c0aab9bec355783d25d6d3afd31fa3773bbb3",
    "resource": {
      "resourceType": "Observation",
      "meta": {
        "profile": [ "https://www.netzwerk-universitaetsmedizin.de/fhir/StructureDefinition/sars-cov-2-ab-ser-pl-ql-ia" ]
      },
      "identifier": [ {
        "type": {
          "coding": [ {
            "system": "http://terminology.hl7.org/CodeSystem/v2-0203",
            "code": "OBI",
            "display": "Observation Instance Identifier"
          } ]
        },
        "system": "https://mein.krankenhaus.de/fhir/NamingSystem/observationId",
        "value": "175c5a72a131c739fbc37320a2574188cfba15c754ce6368656bf99eaaf95fa2",
        "assigner": {
          "reference": "Organization/3a4f3433bce81181bad2d8e0b8fafccf7dc800bc06f29be73dcb38b750a48f9a"
        }
      } ],
      "status": "final",
      "category": [ {
        "coding": [ {
          "system": "http://terminology.hl7.org/CodeSystem/observation-category",
          "code": "laboratory",
          "display": "Laboratory"
        }, {
          "system": "http://loinc.org",
          "code": "26436-6"
        } ]
      } ],
      "code": {
        "coding": [ {
          "system": "http://loinc.org",
          "code": "94762-2",
          "display": "sars-cov-2-covid-19-ab-in-serum-or-plasma-by-immunoassay"
        } ],
        "text": "sarsco_v2_covid19_ab_ia_ql"
      },
      "subject": {
        "reference": "Patient/fa1fbf193f4c51fc106add59e9203c1f955a4621982a5a6d7c5f9f4f6de898b4"
      },
      "encounter": {
        "reference": "Encounter/50f75b06d3a7509c3bc56812dbdd47e96d5f4bf8e9a41fd9e691f1ee7e3102a4"
      },
      "effectiveDateTime": "2020-10-22T19:54:00+00:00",
      "valueCodeableConcept": {
        "coding": [ {
          "system": "http://snomed.info/sct",
          "code": "260415000"
        } ]
      }
    },
    "request": {
      "method": "POST",
      "url": "Observation",
      "ifNoneExist": "identifier=https://mein.krankenhaus.de/fhir/NamingSystem/observationId|1143e158e02bcabb6cf01c29c19c0aab9bec355783d25d6d3afd31fa3773bbb3"
    }
  }, {
    "fullUrl": "Observation/9cddac841061dad4cd9f9c6f9d4d33c1f8c649de9b60fc35c9d378959ee10119",
    "resource": {
      "resourceType": "Observation",
      "meta": {
        "profile": [ "https://www.netzwerk-universitaetsmedizin.de/fhir/StructureDefinition/sars-cov-2-ab-ser-pl-ia-acnc" ]
      },
      "identifier": [ {
        "type": {
          "coding": [ {
            "system": "http://terminology.hl7.org/CodeSystem/v2-0203",
            "code": "OBI",
            "display": "Observation Instance Identifier"
          } ]
        },
        "system": "https://mein.krankenhaus.de/fhir/NamingSystem/observationId",
        "value": "47010852bf7d240adb6741f07d0b90103e41de10a78c883eccfd07256c4433b8",
        "assigner": {
          "reference": "Organization/3a4f3433bce81181bad2d8e0b8fafccf7dc800bc06f29be73dcb38b750a48f9a"
        }
      } ],
      "status": "final",
      "category": [ {
        "coding": [ {
          "system": "http://terminology.hl7.org/CodeSystem/observation-category",
          "code": "laboratory",
          "display": "Laboratory"
        }, {
          "system": "http://loinc.org",
          "code": "26436-6"
        } ]
      } ],
      "code": {
        "coding": [ {
          "system": "http://loinc.org",
          "code": "94769-7",
          "display": "sars-cov-2-covid-19-ab-in-serum-or-plasma-by-immunoassay"
        } ],
        "text": "sarsco_v2_covid19_ab_ia_qn"
      },
      "subject": {
        "reference": "Patient/fa1fbf193f4c51fc106add59e9203c1f955a4621982a5a6d7c5f9f4f6de898b4"
      },
      "encounter": {
        "reference": "Encounter/50f75b06d3a7509c3bc56812dbdd47e96d5f4bf8e9a41fd9e691f1ee7e3102a4"
      },
      "effectiveDateTime": "2020-10-22T19:54:00+00:00",
      "valueQuantity": {
        "value": 40.10330906796522,
        "unit": "[IU]/mL",
        "system": "http://unitsofmeasure.org",
        "code": "[IU]/mL"
      }
    },
    "request": {
      "method": "POST",
      "url": "Observation",
      "ifNoneExist": "identifier=https://mein.krankenhaus.de/fhir/NamingSystem/observationId|9cddac841061dad4cd9f9c6f9d4d33c1f8c649de9b60fc35c9d378959ee10119"
    }
  }, {
    "fullUrl": "Observation/f5475d79772fbb79b5813137f34fa11614eece154099e19b7d83e8e628cdab30",
    "resource": {
      "resourceType": "Observation",
      "meta": {
        "profile": [ "https://www.netzwerk-universitaetsmedizin.de/fhir/StructureDefinition/sars-cov-2-iga-ser-pl-ql-ia" ]
      },
      "identifier": [ {
        "type": {
          "coding": [ {
            "system": "http://terminology.hl7.org/CodeSystem/v2-0203",
            "code": "OBI",
            "display": "Observation Instance Identifier"
          } ]
        },
        "system": "https://mein.krankenhaus.de/fhir/NamingSystem/observationId",
        "value": "a4c686821698686617e3833e3c5a66743a81fb60487ad4b4007aca0735b86a60",
        "assigner": {
          "reference": "Organization/3a4f3433bce81181bad2d8e0b8fafccf7dc800bc06f29be73dcb38b750a48f9a"
        }
      } ],
      "status": "final",
      "category": [ {
        "coding": [ {
          "system": "http://terminology.hl7.org/CodeSystem/observation-category",
          "code": "laboratory",
          "display": "Laboratory"
        }, {
          "system": "http://loinc.org",
          "code": "26436-6"
        } ]
      } ],
      "code": {
        "coding": [ {
          "system": "http://loinc.org",
          "code": "94562-6",
          "display": "sars-cov-2-covid-19-iga-ab-in-serum-or-plasma-by-immunoassay"
        } ],
        "text": "sarsco_v2_covid19_ig_a_ia_ql"
      },
      "subject": {
        "reference": "Patient/fa1fbf193f4c51fc106add59e9203c1f955a4621982a5a6d7c5f9f4f6de898b4"
      },
      "encounter": {
        "reference": "Encounter/50f75b06d3a7509c3bc56812dbdd47e96d5f4bf8e9a41fd9e691f1ee7e3102a4"
      },
      "effectiveDateTime": "2020-10-22T19:54:00+00:00",
      "valueCodeableConcept": {
        "coding": [ {
          "system": "http://snomed.info/sct",
          "code": "419984006"
        } ]
      }
    },
    "request": {
      "method": "POST",
      "url": "Observation",
      "ifNoneExist": "identifier=https://mein.krankenhaus.de/fhir/NamingSystem/observationId|f5475d79772fbb79b5813137f34fa11614eece154099e19b7d83e8e628cdab30"
    }
  }, {
    "fullUrl": "Observation/cd672e61b304bdbfae6c365293f59acb30e192244ec0a426596155acf03c7854",
    "resource": {
      "resourceType": "Observation",
      "meta": {
        "profile": [ "https://www.netzwerk-universitaetsmedizin.de/fhir/StructureDefinition/sars-cov-2-iga-ser-pl-ia-acnc" ]
      },
      "identifier": [ {
        "type": {
          "coding": [ {
            "system": "http://terminology.hl7.org/CodeSystem/v2-0203",
            "code": "OBI",
            "display": "Observation Instance Identifier"
          } ]
        },
        "system": "https://mein.krankenhaus.de/fhir/NamingSystem/observationId",
        "value": "35bb89cd11becf788acd6abd8337e7b90fd065bb21373536aa49bc4d5ba00acb",
        "assigner": {
          "reference": "Organization/3a4f3433bce81181bad2d8e0b8fafccf7dc800bc06f29be73dcb38b750a48f9a"
        }
      } ],
      "status": "final",
      "category": [ {
        "coding": [ {
          "system": "http://terminology.hl7.org/CodeSystem/observation-category",
          "code": "laboratory",
          "display": "Laboratory"
        }, {
          "system": "http://loinc.org",
          "code": "26436-6"
        } ]
      } ],
      "code": {
        "coding": [ {
          "system": "http://loinc.org",
          "code": "94720-0",
          "display": "sars-cov-2-covid-19-iga-ab-in-serum-or-plasma-by-immunoassay"
        } ],
        "text": "sarsco_v2_covid19_ig_a_ia_qn"
      },
      "subject": {
        "reference": "Patient/fa1fbf193f4c51fc106add59e9203c1f955a4621982a5a6d7c5f9f4f6de898b4"
      },
      "encounter": {
        "reference": "Encounter/50f75b06d3a7509c3bc56812dbdd47e96d5f4bf8e9a41fd9e691f1ee7e3102a4"
      },
      "effectiveDateTime": "2020-10-22T19:54:00+00:00",
      "valueQuantity": {
        "value": 91.23125849358743,
        "unit": "[IU]/mL",
        "system": "http://unitsofmeasure.org",
        "code": "[IU]/mL"
      }
    },
    "request": {
      "method": "POST",
      "url": "Observation",
      "ifNoneExist": "identifier=https://mein.krankenhaus.de/fhir/NamingSystem/observationId|cd672e61b304bdbfae6c365293f59acb30e192244ec0a426596155acf03c7854"
    }
  }, {
    "fullUrl": "Observation/e442bb42f91fe6104346f244f185dc5baeece5a1a7af25c0b509e6fc7d939b8e",
    "resource": {
      "resourceType": "Observation",
      "meta": {
        "profile": [ "https://www.netzwerk-universitaetsmedizin.de/fhir/StructureDefinition/sars-cov-2-igg-ser-pl-ql-ia" ]
      },
      "identifier": [ {
        "type": {
          "coding": [ {
            "system": "http://terminology.hl7.org/CodeSystem/v2-0203",
            "code": "OBI",
            "display": "Observation Instance Identifier"
          } ]
        },
        "system": "https://mein.krankenhaus.de/fhir/NamingSystem/observationId",
        "value": "63b40de3bfa7fee5758d4a6b86fc12fc8ab038c95e76dee29604d8f1b9381356",
        "assigner": {
          "reference": "Organization/3a4f3433bce81181bad2d8e0b8fafccf7dc800bc06f29be73dcb38b750a48f9a"
        }
      } ],
      "status": "final",
      "category": [ {
        "coding": [ {
          "system": "http://terminology.hl7.org/CodeSystem/observation-category",
          "code": "laboratory",
          "display": "Laboratory"
        }, {
          "system": "http://loinc.org",
          "code": "26436-6"
        } ]
      } ],
      "code": {
        "coding": [ {
          "system": "http://loinc.org",
          "code": "94563-4",
          "display": "sars-cov-2-covid-19-igg-ab-in-serum-or-plasma-by-immunoassay"
        } ],
        "text": "sarsco_v2_covid19_ig_g_ia_ql"
      },
      "subject": {
        "reference": "Patient/fa1fbf193f4c51fc106add59e9203c1f955a4621982a5a6d7c5f9f4f6de898b4"
      },
      "encounter": {
        "reference": "Encounter/50f75b06d3a7509c3bc56812dbdd47e96d5f4bf8e9a41fd9e691f1ee7e3102a4"
      },
      "effectiveDateTime": "2020-10-22T19:54:00+00:00",
      "valueCodeableConcept": {
        "coding": [ {
          "system": "http://snomed.info/sct",
          "code": "260373001"
        } ]
      }
    },
    "request": {
      "method": "POST",
      "url": "Observation",
      "ifNoneExist": "identifier=https://mein.krankenhaus.de/fhir/NamingSystem/observationId|e442bb42f91fe6104346f244f185dc5baeece5a1a7af25c0b509e6fc7d939b8e"
    }
  }, {
    "fullUrl": "Observation/4286828b9c13f21af5d7154fb9f9a22d7e72045a7c2e9815ca6847ee9efeb388",
    "resource": {
      "resourceType": "Observation",
      "meta": {
        "profile": [ "https://www.netzwerk-universitaetsmedizin.de/fhir/StructureDefinition/sars-cov-2-igg-ser-pl-ia-acnc" ]
      },
      "identifier": [ {
        "type": {
          "coding": [ {
            "system": "http://terminology.hl7.org/CodeSystem/v2-0203",
            "code": "OBI",
            "display": "Observation Instance Identifier"
          } ]
        },
        "system": "https://mein.krankenhaus.de/fhir/NamingSystem/observationId",
        "value": "246e18d32e8b6e269572817b251b31e06a726e8ad2f7b82ffb76727c0a1aaff1",
        "assigner": {
          "reference": "Organization/3a4f3433bce81181bad2d8e0b8fafccf7dc800bc06f29be73dcb38b750a48f9a"
        }
      } ],
      "status": "final",
      "category": [ {
        "coding": [ {
          "system": "http://terminology.hl7.org/CodeSystem/observation-category",
          "code": "laboratory",
          "display": "Laboratory"
        }, {
          "system": "http://loinc.org",
          "code": "26436-6"
        } ]
      } ],
      "code": {
        "coding": [ {
          "system": "http://loinc.org",
          "code": "94505-5",
          "display": "sars-cov-2-covid-19-igg-ab-in-serum-or-plasma-by-immunoassay"
        } ],
        "text": "sarsco_v2_covid19_ig_g_ia_qn"
      },
      "subject": {
        "reference": "Patient/fa1fbf193f4c51fc106add59e9203c1f955a4621982a5a6d7c5f9f4f6de898b4"
      },
      "encounter": {
        "reference": "Encounter/50f75b06d3a7509c3bc56812dbdd47e96d5f4bf8e9a41fd9e691f1ee7e3102a4"
      },
      "effectiveDateTime": "2020-10-22T19:54:00+00:00",
      "valueQuantity": {
        "value": 35.064047394896015,
        "unit": "[arb'U]/mL",
        "system": "http://unitsofmeasure.org",
        "code": "[arb'U]/mL"
      }
    },
    "request": {
      "method": "POST",
      "url": "Observation",
      "ifNoneExist": "identifier=https://mein.krankenhaus.de/fhir/NamingSystem/observationId|4286828b9c13f21af5d7154fb9f9a22d7e72045a7c2e9815ca6847ee9efeb388"
    }
  }, {
    "fullUrl": "Observation/e3f929318dc931a15e03f754780f5e1d3c31f5a3099d805ebb3fef626152acb5",
    "resource": {
      "resourceType": "Observation",
      "meta": {
        "profile": [ "https://www.netzwerk-universitaetsmedizin.de/fhir/StructureDefinition/sars-cov-2-igm-ser-pl-ql-ia" ]
      },
      "identifier": [ {
        "type": {
          "coding": [ {
            "system": "http://terminology.hl7.org/CodeSystem/v2-0203",
            "code": "OBI",
            "display": "Observation Instance Identifier"
          } ]
        },
        "system": "https://mein.krankenhaus.de/fhir/NamingSystem/observationId",
        "value": "421bccbeadd9f5bac507b21bd590017f8c0c5c36906ae2cfd10fe66a6a83ebbb",
        "assigner": {
          "reference": "Organization/3a4f3433bce81181bad2d8e0b8fafccf7dc800bc06f29be73dcb38b750a48f9a"
        }
      } ],
      "status": "final",
      "category": [ {
        "coding": [ {
          "system": "http://terminology.hl7.org/CodeSystem/observation-category",
          "code": "laboratory",
          "display": "Laboratory"
        }, {
          "system": "http://loinc.org",
          "code": "26436-6"
        } ]
      } ],
      "code": {
        "coding": [ {
          "system": "http://loinc.org",
          "code": "94564-2",
          "display": "sars-cov-2-covid-19-igm-ab-in-serum-or-plasma-by-immunoassay"
        } ],
        "text": "sarsco_v2_covid19_ig_m_ia_ql"
      },
      "subject": {
        "reference": "Patient/fa1fbf193f4c51fc106add59e9203c1f955a4621982a5a6d7c5f9f4f6de898b4"
      },
      "encounter": {
        "reference": "Encounter/50f75b06d3a7509c3bc56812dbdd47e96d5f4bf8e9a41fd9e691f1ee7e3102a4"
      },
      "effectiveDateTime": "2020-10-22T19:54:00+00:00",
      "valueCodeableConcept": {
        "coding": [ {
          "system": "http://snomed.info/sct",
          "code": "260415000"
        } ]
      }
    },
    "request": {
      "method": "POST",
      "url": "Observation",
      "ifNoneExist": "identifier=https://mein.krankenhaus.de/fhir/NamingSystem/observationId|e3f929318dc931a15e03f754780f5e1d3c31f5a3099d805ebb3fef626152acb5"
    }
  }, {
    "fullUrl": "Observation/dbba950973799c62f9260df404590427180ad9748ae37bc3dc259bd1913bdb26",
    "resource": {
      "resourceType": "Observation",
      "meta": {
        "profile": [ "https://www.netzwerk-universitaetsmedizin.de/fhir/StructureDefinition/sars-cov-2-igm-ser-pl-ia-acnc" ]
      },
      "identifier": [ {
        "type": {
          "coding": [ {
            "system": "http://terminology.hl7.org/CodeSystem/v2-0203",
            "code": "OBI",
            "display": "Observation Instance Identifier"
          } ]
        },
        "system": "https://mein.krankenhaus.de/fhir/NamingSystem/observationId",
        "value": "c1e7b4401d26a958390504472e88c3dfe9df2690013d9ea58ff650b6efc6bc6b",
        "assigner": {
          "reference": "Organization/3a4f3433bce81181bad2d8e0b8fafccf7dc800bc06f29be73dcb38b750a48f9a"
        }
      } ],
      "status": "final",
      "category": [ {
        "coding": [ {
          "system": "http://terminology.hl7.org/CodeSystem/observation-category",
          "code": "laboratory",
          "display": "Laboratory"
        }, {
          "system": "http://loinc.org",
          "code": "26436-6"
        } ]
      } ],
      "code": {
        "coding": [ {
          "system": "http://loinc.org",
          "code": "94506-3",
          "display": "sars-cov-2-covid-19-igm-ab-in-serum-or-plasma-by-immunoassay"
        } ],
        "text": "sarsco_v2_covid19_ig_m_ia_qn"
      },
      "subject": {
        "reference": "Patient/fa1fbf193f4c51fc106add59e9203c1f955a4621982a5a6d7c5f9f4f6de898b4"
      },
      "encounter": {
        "reference": "Encounter/50f75b06d3a7509c3bc56812dbdd47e96d5f4bf8e9a41fd9e691f1ee7e3102a4"
      },
      "effectiveDateTime": "2020-10-22T19:54:00+00:00",
      "valueQuantity": {
        "value": 53.58654205302048,
        "unit": "[arb'U]/mL",
        "system": "http://unitsofmeasure.org",
        "code": "[arb'U]/mL"
      }
    },
    "request": {
      "method": "POST",
      "url": "Observation",
      "ifNoneExist": "identifier=https://mein.krankenhaus.de/fhir/NamingSystem/observationId|dbba950973799c62f9260df404590427180ad9748ae37bc3dc259bd1913bdb26"
    }
  }, {
    "fullUrl": "Observation/1bd8577df6456e36bf72136a9cc9bb7f55255b2084c33050ed26cd714c83ad04",
    "resource": {
      "resourceType": "Observation",
      "meta": {
        "profile": [ "https://www.medizininformatik-initiative.de/fhir/core/modul-labor/StructureDefinition/ObservationLab" ]
      },
      "identifier": [ {
        "type": {
          "coding": [ {
            "system": "http://terminology.hl7.org/CodeSystem/v2-0203",
            "code": "OBI",
            "display": "Observation Instance Identifier"
          } ]
        },
        "system": "https://mein.krankenhaus.de/fhir/NamingSystem/observationId",
        "value": "1335b353ef93dbc79e9d08f52860dbb754c623af1104f9b21ce2beb67de5740a",
        "assigner": {
          "reference": "Organization/3a4f3433bce81181bad2d8e0b8fafccf7dc800bc06f29be73dcb38b750a48f9a"
        }
      } ],
      "status": "final",
      "category": [ {
        "coding": [ {
          "system": "http://terminology.hl7.org/CodeSystem/observation-category",
          "code": "laboratory",
          "display": "Laboratory"
        }, {
          "system": "http://loinc.org",
          "code": "26436-6"
        } ]
      } ],
      "code": {
        "coding": [ {
          "system": "http://loinc.org",
          "code": "76485-2",
          "display": "c-reactive-protein-in-serum-or-plasma"
        } ],
        "text": "crp"
      },
      "subject": {
        "reference": "Patient/fa1fbf193f4c51fc106add59e9203c1f955a4621982a5a6d7c5f9f4f6de898b4"
      },
      "encounter": {
        "reference": "Encounter/50f75b06d3a7509c3bc56812dbdd47e96d5f4bf8e9a41fd9e691f1ee7e3102a4"
      },
      "effectiveDateTime": "2020-03-06T01:15:00+00:00",
      "valueQuantity": {
        "value": 54.634690153943474,
        "unit": "nmol/L",
        "system": "http://unitsofmeasure.org",
        "code": "nmol/L"
      }
    },
    "request": {
      "method": "POST",
      "url": "Observation",
      "ifNoneExist": "identifier=https://mein.krankenhaus.de/fhir/NamingSystem/observationId|1bd8577df6456e36bf72136a9cc9bb7f55255b2084c33050ed26cd714c83ad04"
    }
  }, {
    "fullUrl": "Observation/e43584e3cb16abbf3ab6049e425c9f4b6e9ec6bdf696c83492832c4167f4535d",
    "resource": {
      "resourceType": "Observation",
      "meta": {
        "profile": [ "https://www.medizininformatik-initiative.de/fhir/core/modul-labor/StructureDefinition/ObservationLab" ]
      },
      "identifier": [ {
        "type": {
          "coding": [ {
            "system": "http://terminology.hl7.org/CodeSystem/v2-0203",
            "code": "OBI",
            "display": "Observation Instance Identifier"
          } ]
        },
        "system": "https://mein.krankenhaus.de/fhir/NamingSystem/observationId",
        "value": "03db4320e2ca616daee8390591baf20d98a32f12cdffe5ec081cb6dff87c24da",
        "assigner": {
          "reference": "Organization/3a4f3433bce81181bad2d8e0b8fafccf7dc800bc06f29be73dcb38b750a48f9a"
        }
      } ],
      "status": "final",
      "category": [ {
        "coding": [ {
          "system": "http://terminology.hl7.org/CodeSystem/observation-category",
          "code": "laboratory",
          "display": "Laboratory"
        }, {
          "system": "http://loinc.org",
          "code": "26436-6"
        } ]
      } ],
      "code": {
        "coding": [ {
          "system": "http://loinc.org",
          "code": "14723-1",
          "display": "ferritin-in-serum-or-plasma"
        } ],
        "text": "ferritin"
      },
      "subject": {
        "reference": "Patient/fa1fbf193f4c51fc106add59e9203c1f955a4621982a5a6d7c5f9f4f6de898b4"
      },
      "encounter": {
        "reference": "Encounter/50f75b06d3a7509c3bc56812dbdd47e96d5f4bf8e9a41fd9e691f1ee7e3102a4"
      },
      "effectiveDateTime": "2020-03-06T01:15:00+00:00",
      "valueQuantity": {
        "value": 81.75355781848621,
        "unit": "pmol/L",
        "system": "http://unitsofmeasure.org",
        "code": "pmol/L"
      }
    },
    "request": {
      "method": "POST",
      "url": "Observation",
      "ifNoneExist": "identifier=https://mein.krankenhaus.de/fhir/NamingSystem/observationId|e43584e3cb16abbf3ab6049e425c9f4b6e9ec6bdf696c83492832c4167f4535d"
    }
  }, {
    "fullUrl": "Observation/89ec93405784a60dde47563ce46b75f6b20be96dfcaf5fb8549cd2fd84520114",
    "resource": {
      "resourceType": "Observation",
      "meta": {
        "profile": [ "https://www.medizininformatik-initiative.de/fhir/core/modul-labor/StructureDefinition/ObservationLab" ]
      },
      "identifier": [ {
        "type": {
          "coding": [ {
            "system": "http://terminology.hl7.org/CodeSystem/v2-0203",
            "code": "OBI",
            "display": "Observation Instance Identifier"
          } ]
        },
        "system": "https://mein.krankenhaus.de/fhir/NamingSystem/observationId",
        "value": "d384a8538389a3076f622576d20b8ae42190309184c3c974482cabc7c4038960",
        "assigner": {
          "reference": "Organization/3a4f3433bce81181bad2d8e0b8fafccf7dc800bc06f29be73dcb38b750a48f9a"
        }
      } ],
      "status": "final",
      "category": [ {
        "coding": [ {
          "system": "http://terminology.hl7.org/CodeSystem/observation-category",
          "code": "laboratory",
          "display": "Laboratory"
        }, {
          "system": "http://loinc.org",
          "code": "26436-6"
        } ]
      } ],
      "code": {
        "coding": [ {
          "system": "http://loinc.org",
          "code": "59827-6",
          "display": "bilirubin.total-in-arterial-blood"
        } ],
        "text": "bilirubin"
      },
      "subject": {
        "reference": "Patient/fa1fbf193f4c51fc106add59e9203c1f955a4621982a5a6d7c5f9f4f6de898b4"
      },
      "encounter": {
        "reference": "Encounter/50f75b06d3a7509c3bc56812dbdd47e96d5f4bf8e9a41fd9e691f1ee7e3102a4"
      },
      "effectiveDateTime": "2020-03-06T01:15:00+00:00",
      "valueQuantity": {
        "value": 45.489606255804816,
        "unit": "mg/dL",
        "system": "http://unitsofmeasure.org",
        "code": "mg/dL"
      }
    },
    "request": {
      "method": "POST",
      "url": "Observation",
      "ifNoneExist": "identifier=https://mein.krankenhaus.de/fhir/NamingSystem/observationId|89ec93405784a60dde47563ce46b75f6b20be96dfcaf5fb8549cd2fd84520114"
    }
  }, {
    "fullUrl": "Observation/f19e629d5b9d5405444ceb2b3b46ba18b162e4400737097c6b8760773e11edd3",
    "resource": {
      "resourceType": "Observation",
      "meta": {
        "profile": [ "https://www.medizininformatik-initiative.de/fhir/core/modul-labor/StructureDefinition/ObservationLab" ]
      },
      "identifier": [ {
        "type": {
          "coding": [ {
            "system": "http://terminology.hl7.org/CodeSystem/v2-0203",
            "code": "OBI",
            "display": "Observation Instance Identifier"
          } ]
        },
        "system": "https://mein.krankenhaus.de/fhir/NamingSystem/observationId",
        "value": "dbb0405943e99796ad9132f0ddc73f4113d952a662b5b4140f072c7e8c9f513b",
        "assigner": {
          "reference": "Organization/3a4f3433bce81181bad2d8e0b8fafccf7dc800bc06f29be73dcb38b750a48f9a"
        }
      } ],
      "status": "final",
      "category": [ {
        "coding": [ {
          "system": "http://terminology.hl7.org/CodeSystem/observation-category",
          "code": "laboratory",
          "display": "Laboratory"
        }, {
          "system": "http://loinc.org",
          "code": "26436-6"
        } ]
      } ],
      "code": {
        "coding": [ {
          "system": "http://loinc.org",
          "code": "71427-9",
          "display": "fibrin-d-dimer-feu-in-blood-by-immunoassay"
        } ],
        "text": "ddimer"
      },
      "subject": {
        "reference": "Patient/fa1fbf193f4c51fc106add59e9203c1f955a4621982a5a6d7c5f9f4f6de898b4"
      },
      "encounter": {
        "reference": "Encounter/50f75b06d3a7509c3bc56812dbdd47e96d5f4bf8e9a41fd9e691f1ee7e3102a4"
      },
      "effectiveDateTime": "2020-03-06T01:15:00+00:00",
      "valueQuantity": {
        "value": 45.40620036371783,
        "unit": "ug/mL{FEU}",
        "system": "http://unitsofmeasure.org",
        "code": "ug/mL{FEU}"
      }
    },
    "request": {
      "method": "POST",
      "url": "Observation",
      "ifNoneExist": "identifier=https://mein.krankenhaus.de/fhir/NamingSystem/observationId|f19e629d5b9d5405444ceb2b3b46ba18b162e4400737097c6b8760773e11edd3"
    }
  }, {
    "fullUrl": "Observation/fc808cc4cf2651f53f166b67bfef3c66d113dfa2b9e724c4a707df765c60ca72",
    "resource": {
      "resourceType": "Observation",
      "meta": {
        "profile": [ "https://www.medizininformatik-initiative.de/fhir/core/modul-labor/StructureDefinition/ObservationLab" ]
      },
      "identifier": [ {
        "type": {
          "coding": [ {
            "system": "http://terminology.hl7.org/CodeSystem/v2-0203",
            "code": "OBI",
            "display": "Observation Instance Identifier"
          } ]
        },
        "system": "https://mein.krankenhaus.de/fhir/NamingSystem/observationId",
        "value": "fb2b1910a7d2fc52d672df83161500ddf6076bd174e87c56c25cecf366a415f7",
        "assigner": {
          "reference": "Organization/3a4f3433bce81181bad2d8e0b8fafccf7dc800bc06f29be73dcb38b750a48f9a"
        }
      } ],
      "status": "final",
      "category": [ {
        "coding": [ {
          "system": "http://terminology.hl7.org/CodeSystem/observation-category",
          "code": "laboratory",
          "display": "Laboratory"
        }, {
          "system": "http://loinc.org",
          "code": "26436-6"
        } ]
      } ],
      "code": {
        "coding": [ {
          "system": "http://loinc.org",
          "code": "2324-2",
          "display": "gamma-glutamyl-transferase-in-serum-or-plasma"
        } ],
        "text": "gammagt"
      },
      "subject": {
        "reference": "Patient/fa1fbf193f4c51fc106add59e9203c1f955a4621982a5a6d7c5f9f4f6de898b4"
      },
      "encounter": {
        "reference": "Encounter/50f75b06d3a7509c3bc56812dbdd47e96d5f4bf8e9a41fd9e691f1ee7e3102a4"
      },
      "effectiveDateTime": "2020-03-06T01:15:00+00:00",
      "valueQuantity": {
        "value": 67.15800383744538,
        "unit": "U/L",
        "system": "http://unitsofmeasure.org",
        "code": "U/L"
      }
    },
    "request": {
      "method": "POST",
      "url": "Observation",
      "ifNoneExist": "identifier=https://mein.krankenhaus.de/fhir/NamingSystem/observationId|fc808cc4cf2651f53f166b67bfef3c66d113dfa2b9e724c4a707df765c60ca72"
    }
  }, {
    "fullUrl": "Observation/d65713e76a85a1c8bc4fe0187e772c96aae62c054113c553fe55bf0ab279cd97",
    "resource": {
      "resourceType": "Observation",
      "meta": {
        "profile": [ "https://www.medizininformatik-initiative.de/fhir/core/modul-labor/StructureDefinition/ObservationLab" ]
      },
      "identifier": [ {
        "type": {
          "coding": [ {
            "system": "http://terminology.hl7.org/CodeSystem/v2-0203",
            "code": "OBI",
            "display": "Observation Instance Identifier"
          } ]
        },
        "system": "https://mein.krankenhaus.de/fhir/NamingSystem/observationId",
        "value": "a9f1ba96e5364574e84d7c40a22586f63fa5cac7b3c6906271c24bd87de4637d",
        "assigner": {
          "reference": "Organization/3a4f3433bce81181bad2d8e0b8fafccf7dc800bc06f29be73dcb38b750a48f9a"
        }
      } ],
      "status": "final",
      "category": [ {
        "coding": [ {
          "system": "http://terminology.hl7.org/CodeSystem/observation-category",
          "code": "laboratory",
          "display": "Laboratory"
        }, {
          "system": "http://loinc.org",
          "code": "26436-6"
        } ]
      } ],
      "code": {
        "coding": [ {
          "system": "http://loinc.org",
          "code": "1920-8",
          "display": "aspartate-aminotransferase-in-serum-or-plasma"
        } ],
        "text": "gotast"
      },
      "subject": {
        "reference": "Patient/fa1fbf193f4c51fc106add59e9203c1f955a4621982a5a6d7c5f9f4f6de898b4"
      },
      "encounter": {
        "reference": "Encounter/50f75b06d3a7509c3bc56812dbdd47e96d5f4bf8e9a41fd9e691f1ee7e3102a4"
      },
      "effectiveDateTime": "2020-03-06T01:15:00+00:00",
      "valueQuantity": {
        "value": 98.75435902406431,
        "unit": "U/L",
        "system": "http://unitsofmeasure.org",
        "code": "U/L"
      }
    },
    "request": {
      "method": "POST",
      "url": "Observation",
      "ifNoneExist": "identifier=https://mein.krankenhaus.de/fhir/NamingSystem/observationId|d65713e76a85a1c8bc4fe0187e772c96aae62c054113c553fe55bf0ab279cd97"
    }
  }, {
    "fullUrl": "Observation/a415a0ad494608ddd08a84ded8d739f6509cf40569da132393f8f0b81d10c903",
    "resource": {
      "resourceType": "Observation",
      "meta": {
        "profile": [ "https://www.medizininformatik-initiative.de/fhir/core/modul-labor/StructureDefinition/ObservationLab" ]
      },
      "identifier": [ {
        "type": {
          "coding": [ {
            "system": "http://terminology.hl7.org/CodeSystem/v2-0203",
            "code": "OBI",
            "display": "Observation Instance Identifier"
          } ]
        },
        "system": "https://mein.krankenhaus.de/fhir/NamingSystem/observationId",
        "value": "a1966fb36334f3cc9145f2e042399f2043b5f5f1b8c1f1d0f9c468235f3f516c",
        "assigner": {
          "reference": "Organization/3a4f3433bce81181bad2d8e0b8fafccf7dc800bc06f29be73dcb38b750a48f9a"
        }
      } ],
      "status": "final",
      "category": [ {
        "coding": [ {
          "system": "http://terminology.hl7.org/CodeSystem/observation-category",
          "code": "laboratory",
          "display": "Laboratory"
        }, {
          "system": "http://loinc.org",
          "code": "26436-6"
        } ]
      } ],
      "code": {
        "coding": [ {
          "system": "http://loinc.org",
          "code": "2532-0"
        }, {
          "system": "http://loinc.org",
          "code": "60017-1"
        }, {
          "system": "http://loinc.org",
          "code": "14803-1"
        }, {
          "system": "http://loinc.org",
          "code": "14804-9"
        }, {
          "system": "http://loinc.org",
          "code": "14805-6"
        } ],
        "text": "ldh"
      },
      "subject": {
        "reference": "Patient/fa1fbf193f4c51fc106add59e9203c1f955a4621982a5a6d7c5f9f4f6de898b4"
      },
      "encounter": {
        "reference": "Encounter/50f75b06d3a7509c3bc56812dbdd47e96d5f4bf8e9a41fd9e691f1ee7e3102a4"
      },
      "effectiveDateTime": "2020-03-06T01:15:00+00:00",
      "valueQuantity": {
        "value": 58.19472731415895,
        "unit": "U/L",
        "system": "http://unitsofmeasure.org",
        "code": "U/L"
      }
    },
    "request": {
      "method": "POST",
      "url": "Observation",
      "ifNoneExist": "identifier=https://mein.krankenhaus.de/fhir/NamingSystem/observationId|a415a0ad494608ddd08a84ded8d739f6509cf40569da132393f8f0b81d10c903"
    }
  }, {
    "fullUrl": "Observation/17d40636a1384c590fdcafd5d4d0e9f9798bb4ab3d7db0dd572056b3887318de",
    "resource": {
      "resourceType": "Observation",
      "meta": {
        "profile": [ "https://www.medizininformatik-initiative.de/fhir/core/modul-labor/StructureDefinition/ObservationLab" ]
      },
      "identifier": [ {
        "type": {
          "coding": [ {
            "system": "http://terminology.hl7.org/CodeSystem/v2-0203",
            "code": "OBI",
            "display": "Observation Instance Identifier"
          } ]
        },
        "system": "https://mein.krankenhaus.de/fhir/NamingSystem/observationId",
        "value": "7bbfb321790b4607f4fe7dee28e87f2a4fb9f90039b32ae68a337c37235a8a26",
        "assigner": {
          "reference": "Organization/3a4f3433bce81181bad2d8e0b8fafccf7dc800bc06f29be73dcb38b750a48f9a"
        }
      } ],
      "status": "final",
      "category": [ {
        "coding": [ {
          "system": "http://terminology.hl7.org/CodeSystem/observation-category",
          "code": "laboratory",
          "display": "Laboratory"
        }, {
          "system": "http://loinc.org",
          "code": "26436-6"
        } ]
      } ],
      "code": {
        "coding": [ {
          "system": "http://loinc.org",
          "code": "10839-9",
          "display": "troponin-i.cardiac-in-serum-or-plasma"
        } ],
        "text": "kardiale_troponine"
      },
      "subject": {
        "reference": "Patient/fa1fbf193f4c51fc106add59e9203c1f955a4621982a5a6d7c5f9f4f6de898b4"
      },
      "encounter": {
        "reference": "Encounter/50f75b06d3a7509c3bc56812dbdd47e96d5f4bf8e9a41fd9e691f1ee7e3102a4"
      },
      "effectiveDateTime": "2020-03-06T01:15:00+00:00",
      "valueQuantity": {
        "value": 82.94034103039787,
        "unit": "ng/L",
        "system": "http://unitsofmeasure.org",
        "code": "ng/L"
      }
    },
    "request": {
      "method": "POST",
      "url": "Observation",
      "ifNoneExist": "identifier=https://mein.krankenhaus.de/fhir/NamingSystem/observationId|17d40636a1384c590fdcafd5d4d0e9f9798bb4ab3d7db0dd572056b3887318de"
    }
  }, {
    "fullUrl": "Observation/1f851a0693c193d893ade99f1051c05bdb6bd1c256e60aa01f49e76804bc2de9",
    "resource": {
      "resourceType": "Observation",
      "meta": {
        "profile": [ "https://www.medizininformatik-initiative.de/fhir/core/modul-labor/StructureDefinition/ObservationLab" ]
      },
      "identifier": [ {
        "type": {
          "coding": [ {
            "system": "http://terminology.hl7.org/CodeSystem/v2-0203",
            "code": "OBI",
            "display": "Observation Instance Identifier"
          } ]
        },
        "system": "https://mein.krankenhaus.de/fhir/NamingSystem/observationId",
        "value": "16270c9c8ae34f2eedf45ec545caf1002ca2a7b3f3f3cf73579027597eff265d",
        "assigner": {
          "reference": "Organization/3a4f3433bce81181bad2d8e0b8fafccf7dc800bc06f29be73dcb38b750a48f9a"
        }
      } ],
      "status": "final",
      "category": [ {
        "coding": [ {
          "system": "http://terminology.hl7.org/CodeSystem/observation-category",
          "code": "laboratory",
          "display": "Laboratory"
        }, {
          "system": "http://loinc.org",
          "code": "26436-6"
        } ]
      } ],
      "code": {
        "coding": [ {
          "system": "http://loinc.org",
          "code": "30351-1",
          "display": "hemoglobin-in-mixed-venous-blood"
        } ],
        "text": "hamoglobin"
      },
      "subject": {
        "reference": "Patient/fa1fbf193f4c51fc106add59e9203c1f955a4621982a5a6d7c5f9f4f6de898b4"
      },
      "encounter": {
        "reference": "Encounter/50f75b06d3a7509c3bc56812dbdd47e96d5f4bf8e9a41fd9e691f1ee7e3102a4"
      },
      "effectiveDateTime": "2020-03-06T01:15:00+00:00",
      "valueQuantity": {
        "value": 17.288113588398634,
        "unit": "g/dL",
        "system": "http://unitsofmeasure.org",
        "code": "g/dL"
      }
    },
    "request": {
      "method": "POST",
      "url": "Observation",
      "ifNoneExist": "identifier=https://mein.krankenhaus.de/fhir/NamingSystem/observationId|1f851a0693c193d893ade99f1051c05bdb6bd1c256e60aa01f49e76804bc2de9"
    }
  }, {
    "fullUrl": "Observation/9cd78c8942bae2a9db3806723337a9b239cbc1f2c263234259799dfb97b6c2bf",
    "resource": {
      "resourceType": "Observation",
      "meta": {
        "profile": [ "https://www.medizininformatik-initiative.de/fhir/core/modul-labor/StructureDefinition/ObservationLab" ]
      },
      "identifier": [ {
        "type": {
          "coding": [ {
            "system": "http://terminology.hl7.org/CodeSystem/v2-0203",
            "code": "OBI",
            "display": "Observation Instance Identifier"
          } ]
        },
        "system": "https://mein.krankenhaus.de/fhir/NamingSystem/observationId",
        "value": "c18950c72f6e00e5459289f217013853d7c764bc3a9ce222a155c5e48b9a05e5",
        "assigner": {
          "reference": "Organization/3a4f3433bce81181bad2d8e0b8fafccf7dc800bc06f29be73dcb38b750a48f9a"
        }
      } ],
      "status": "final",
      "category": [ {
        "coding": [ {
          "system": "http://terminology.hl7.org/CodeSystem/observation-category",
          "code": "laboratory",
          "display": "Laboratory"
        }, {
          "system": "http://loinc.org",
          "code": "26436-6"
        } ]
      } ],
      "code": {
        "coding": [ {
          "system": "http://loinc.org",
          "code": "25386-4",
          "display": "creatinine-in-body-fluid"
        } ],
        "text": "kreatinin"
      },
      "subject": {
        "reference": "Patient/fa1fbf193f4c51fc106add59e9203c1f955a4621982a5a6d7c5f9f4f6de898b4"
      },
      "encounter": {
        "reference": "Encounter/50f75b06d3a7509c3bc56812dbdd47e96d5f4bf8e9a41fd9e691f1ee7e3102a4"
      },
      "effectiveDateTime": "2020-03-06T01:15:00+00:00",
      "valueQuantity": {
        "value": 97.87926462774696,
        "unit": "umol/L",
        "system": "http://unitsofmeasure.org",
        "code": "umol/L"
      }
    },
    "request": {
      "method": "POST",
      "url": "Observation",
      "ifNoneExist": "identifier=https://mein.krankenhaus.de/fhir/NamingSystem/observationId|9cd78c8942bae2a9db3806723337a9b239cbc1f2c263234259799dfb97b6c2bf"
    }
  }, {
    "fullUrl": "Observation/c2a6138f24d4ae6bc6f39f31fabf9b63a88806b2e96df46ca9c9c57d73cdef1a",
    "resource": {
      "resourceType": "Observation",
      "meta": {
        "profile": [ "https://www.medizininformatik-initiative.de/fhir/core/modul-labor/StructureDefinition/ObservationLab" ]
      },
      "identifier": [ {
        "type": {
          "coding": [ {
            "system": "http://terminology.hl7.org/CodeSystem/v2-0203",
            "code": "OBI",
            "display": "Observation Instance Identifier"
          } ]
        },
        "system": "https://mein.krankenhaus.de/fhir/NamingSystem/observationId",
        "value": "a50d534073dce97978ac1d6ea3a58e40532e6547e5f3f652ceb4dbc91d3535ca",
        "assigner": {
          "reference": "Organization/3a4f3433bce81181bad2d8e0b8fafccf7dc800bc06f29be73dcb38b750a48f9a"
        }
      } ],
      "status": "final",
      "category": [ {
        "coding": [ {
          "system": "http://terminology.hl7.org/CodeSystem/observation-category",
          "code": "laboratory",
          "display": "Laboratory"
        }, {
          "system": "http://loinc.org",
          "code": "26436-6"
        } ]
      } ],
      "code": {
        "coding": [ {
          "system": "http://loinc.org",
          "code": "14118-4",
          "display": "lactate-in-serum-or-plasma"
        } ],
        "text": "laktat"
      },
      "subject": {
        "reference": "Patient/fa1fbf193f4c51fc106add59e9203c1f955a4621982a5a6d7c5f9f4f6de898b4"
      },
      "encounter": {
        "reference": "Encounter/50f75b06d3a7509c3bc56812dbdd47e96d5f4bf8e9a41fd9e691f1ee7e3102a4"
      },
      "effectiveDateTime": "2020-03-06T01:15:00+00:00",
      "valueQuantity": {
        "value": 84.89746623012422,
        "unit": "mg/dL",
        "system": "http://unitsofmeasure.org",
        "code": "mg/dL"
      }
    },
    "request": {
      "method": "POST",
      "url": "Observation",
      "ifNoneExist": "identifier=https://mein.krankenhaus.de/fhir/NamingSystem/observationId|c2a6138f24d4ae6bc6f39f31fabf9b63a88806b2e96df46ca9c9c57d73cdef1a"
    }
  }, {
    "fullUrl": "Observation/a633115f849b0b5ec8698b96c75fd509923070ff1949f0e7142c4446e9e9d949",
    "resource": {
      "resourceType": "Observation",
      "meta": {
        "profile": [ "https://www.medizininformatik-initiative.de/fhir/core/modul-labor/StructureDefinition/ObservationLab" ]
      },
      "identifier": [ {
        "type": {
          "coding": [ {
            "system": "http://terminology.hl7.org/CodeSystem/v2-0203",
            "code": "OBI",
            "display": "Observation Instance Identifier"
          } ]
        },
        "system": "https://mein.krankenhaus.de/fhir/NamingSystem/observationId",
        "value": "6d097b5e06f945a8e12422c2fca0e393860f7f021106acb4e45a071ad13f5448",
        "assigner": {
          "reference": "Organization/3a4f3433bce81181bad2d8e0b8fafccf7dc800bc06f29be73dcb38b750a48f9a"
        }
      } ],
      "status": "final",
      "category": [ {
        "coding": [ {
          "system": "http://terminology.hl7.org/CodeSystem/observation-category",
          "code": "laboratory",
          "display": "Laboratory"
        }, {
          "system": "http://loinc.org",
          "code": "26436-6"
        } ]
      } ],
      "code": {
        "coding": [ {
          "system": "http://loinc.org",
          "code": "6690-2",
          "display": "leukocytes-in-blood-by-automated-count"
        } ],
        "text": "leukozyten_absolut"
      },
      "subject": {
        "reference": "Patient/fa1fbf193f4c51fc106add59e9203c1f955a4621982a5a6d7c5f9f4f6de898b4"
      },
      "encounter": {
        "reference": "Encounter/50f75b06d3a7509c3bc56812dbdd47e96d5f4bf8e9a41fd9e691f1ee7e3102a4"
      },
      "effectiveDateTime": "2020-03-06T01:15:00+00:00",
      "valueQuantity": {
        "value": 77.91911680001236,
        "unit": "10*3/uL",
        "system": "http://unitsofmeasure.org",
        "code": "10*3/uL"
      }
    },
    "request": {
      "method": "POST",
      "url": "Observation",
      "ifNoneExist": "identifier=https://mein.krankenhaus.de/fhir/NamingSystem/observationId|a633115f849b0b5ec8698b96c75fd509923070ff1949f0e7142c4446e9e9d949"
    }
  }, {
    "fullUrl": "Observation/bf8ec3de789bc70ebe9c902e9cc48678d007d346d1250b13e094367d3cdd2b47",
    "resource": {
      "resourceType": "Observation",
      "meta": {
        "profile": [ "https://www.medizininformatik-initiative.de/fhir/core/modul-labor/StructureDefinition/ObservationLab" ]
      },
      "identifier": [ {
        "type": {
          "coding": [ {
            "system": "http://terminology.hl7.org/CodeSystem/v2-0203",
            "code": "OBI",
            "display": "Observation Instance Identifier"
          } ]
        },
        "system": "https://mein.krankenhaus.de/fhir/NamingSystem/observationId",
        "value": "e4fc7489e6cb070f2091d753041dd79b163254794d817deef05e1df0f977f3fc",
        "assigner": {
          "reference": "Organization/3a4f3433bce81181bad2d8e0b8fafccf7dc800bc06f29be73dcb38b750a48f9a"
        }
      } ],
      "status": "final",
      "category": [ {
        "coding": [ {
          "system": "http://terminology.hl7.org/CodeSystem/observation-category",
          "code": "laboratory",
          "display": "Laboratory"
        }, {
          "system": "http://loinc.org",
          "code": "26436-6"
        } ]
      } ],
      "code": {
        "coding": [ {
          "system": "http://loinc.org",
          "code": "732-8",
          "display": "lymphocytes-in-blood-by-manual-count"
        } ],
        "text": "lymphozyten_absolut"
      },
      "subject": {
        "reference": "Patient/fa1fbf193f4c51fc106add59e9203c1f955a4621982a5a6d7c5f9f4f6de898b4"
      },
      "encounter": {
        "reference": "Encounter/50f75b06d3a7509c3bc56812dbdd47e96d5f4bf8e9a41fd9e691f1ee7e3102a4"
      },
      "effectiveDateTime": "2020-03-06T01:15:00+00:00",
      "valueQuantity": {
        "value": 74.90798915609615,
        "unit": "10*3/uL",
        "system": "http://unitsofmeasure.org",
        "code": "10*3/uL"
      }
    },
    "request": {
      "method": "POST",
      "url": "Observation",
      "ifNoneExist": "identifier=https://mein.krankenhaus.de/fhir/NamingSystem/observationId|bf8ec3de789bc70ebe9c902e9cc48678d007d346d1250b13e094367d3cdd2b47"
    }
  }, {
    "fullUrl": "Observation/919d4deee47157eb352f2ff8fb3ec24d7065e2c9aed16b84129f9470d431ba3f",
    "resource": {
      "resourceType": "Observation",
      "meta": {
        "profile": [ "https://www.medizininformatik-initiative.de/fhir/core/modul-labor/StructureDefinition/ObservationLab" ]
      },
      "identifier": [ {
        "type": {
          "coding": [ {
            "system": "http://terminology.hl7.org/CodeSystem/v2-0203",
            "code": "OBI",
            "display": "Observation Instance Identifier"
          } ]
        },
        "system": "https://mein.krankenhaus.de/fhir/NamingSystem/observationId",
        "value": "5f285a54e52cd797e267a554e3c8dca93e325140ffae27ce3072d7048b26b330",
        "assigner": {
          "reference": "Organization/3a4f3433bce81181bad2d8e0b8fafccf7dc800bc06f29be73dcb38b750a48f9a"
        }
      } ],
      "status": "final",
      "category": [ {
        "coding": [ {
          "system": "http://terminology.hl7.org/CodeSystem/observation-category",
          "code": "laboratory",
          "display": "Laboratory"
        }, {
          "system": "http://loinc.org",
          "code": "26436-6"
        } ]
      } ],
      "code": {
        "coding": [ {
          "system": "http://loinc.org",
          "code": "753-4",
          "display": "neutrophils-in-blood-by-manual-count"
        } ],
        "text": "neutrophile_absolut"
      },
      "subject": {
        "reference": "Patient/fa1fbf193f4c51fc106add59e9203c1f955a4621982a5a6d7c5f9f4f6de898b4"
      },
      "encounter": {
        "reference": "Encounter/50f75b06d3a7509c3bc56812dbdd47e96d5f4bf8e9a41fd9e691f1ee7e3102a4"
      },
      "effectiveDateTime": "2020-03-06T01:15:00+00:00",
      "valueQuantity": {
        "value": 11.884992494379565,
        "unit": "10*3/uL",
        "system": "http://unitsofmeasure.org",
        "code": "10*3/uL"
      }
    },
    "request": {
      "method": "POST",
      "url": "Observation",
      "ifNoneExist": "identifier=https://mein.krankenhaus.de/fhir/NamingSystem/observationId|919d4deee47157eb352f2ff8fb3ec24d7065e2c9aed16b84129f9470d431ba3f"
    }
  }, {
    "fullUrl": "Observation/02c1a9cc6174b4c615c0cc9c5acbc902d5d9c55022e474875b220caadfa55169",
    "resource": {
      "resourceType": "Observation",
      "meta": {
        "profile": [ "https://www.medizininformatik-initiative.de/fhir/core/modul-labor/StructureDefinition/ObservationLab" ]
      },
      "identifier": [ {
        "type": {
          "coding": [ {
            "system": "http://terminology.hl7.org/CodeSystem/v2-0203",
            "code": "OBI",
            "display": "Observation Instance Identifier"
          } ]
        },
        "system": "https://mein.krankenhaus.de/fhir/NamingSystem/observationId",
        "value": "e6c5fdb7a2ca5103d4bb0aff6533882fa2b971cad9bc7039f14615fc4d9cb387",
        "assigner": {
          "reference": "Organization/3a4f3433bce81181bad2d8e0b8fafccf7dc800bc06f29be73dcb38b750a48f9a"
        }
      } ],
      "status": "final",
      "category": [ {
        "coding": [ {
          "system": "http://terminology.hl7.org/CodeSystem/observation-category",
          "code": "laboratory",
          "display": "Laboratory"
        }, {
          "system": "http://loinc.org",
          "code": "26436-6"
        } ]
      } ],
      "code": {
        "coding": [ {
          "system": "http://loinc.org",
          "code": "14979-9",
          "display": "aptt-in-platelet-poor-plasma-by-coagulation-assay"
        } ],
        "text": "ptt"
      },
      "subject": {
        "reference": "Patient/fa1fbf193f4c51fc106add59e9203c1f955a4621982a5a6d7c5f9f4f6de898b4"
      },
      "encounter": {
        "reference": "Encounter/50f75b06d3a7509c3bc56812dbdd47e96d5f4bf8e9a41fd9e691f1ee7e3102a4"
      },
      "effectiveDateTime": "2020-03-06T01:15:00+00:00",
      "valueQuantity": {
        "value": 50.68713283088716,
        "unit": "s",
        "system": "http://unitsofmeasure.org",
        "code": "s"
      }
    },
    "request": {
      "method": "POST",
      "url": "Observation",
      "ifNoneExist": "identifier=https://mein.krankenhaus.de/fhir/NamingSystem/observationId|02c1a9cc6174b4c615c0cc9c5acbc902d5d9c55022e474875b220caadfa55169"
    }
  }, {
    "fullUrl": "Observation/78f0c3916695563f9647bf8ea401342b9c566b0853f9cfbe12370b441f860ac1",
    "resource": {
      "resourceType": "Observation",
      "meta": {
        "profile": [ "https://www.medizininformatik-initiative.de/fhir/core/modul-labor/StructureDefinition/ObservationLab" ]
      },
      "identifier": [ {
        "type": {
          "coding": [ {
            "system": "http://terminology.hl7.org/CodeSystem/v2-0203",
            "code": "OBI",
            "display": "Observation Instance Identifier"
          } ]
        },
        "system": "https://mein.krankenhaus.de/fhir/NamingSystem/observationId",
        "value": "079a8dcf96ae1ec8ea89dee336d2ce9b9e77be329374e72bf8da08aac1fbfaad",
        "assigner": {
          "reference": "Organization/3a4f3433bce81181bad2d8e0b8fafccf7dc800bc06f29be73dcb38b750a48f9a"
        }
      } ],
      "status": "final",
      "category": [ {
        "coding": [ {
          "system": "http://terminology.hl7.org/CodeSystem/observation-category",
          "code": "laboratory",
          "display": "Laboratory"
        }, {
          "system": "http://loinc.org",
          "code": "26436-6"
        } ]
      } ],
      "code": {
        "coding": [ {
          "system": "http://loinc.org",
          "code": "26515-7",
          "display": "platelets-in-blood"
        } ],
        "text": "thrombozyten_absolut"
      },
      "subject": {
        "reference": "Patient/fa1fbf193f4c51fc106add59e9203c1f955a4621982a5a6d7c5f9f4f6de898b4"
      },
      "encounter": {
        "reference": "Encounter/50f75b06d3a7509c3bc56812dbdd47e96d5f4bf8e9a41fd9e691f1ee7e3102a4"
      },
      "effectiveDateTime": "2020-03-06T01:15:00+00:00",
      "valueQuantity": {
        "value": 26.76526809820303,
        "unit": "10*3/uL",
        "system": "http://unitsofmeasure.org",
        "code": "10*3/uL"
      }
    },
    "request": {
      "method": "POST",
      "url": "Observation",
      "ifNoneExist": "identifier=https://mein.krankenhaus.de/fhir/NamingSystem/observationId|78f0c3916695563f9647bf8ea401342b9c566b0853f9cfbe12370b441f860ac1"
    }
  }, {
    "fullUrl": "Observation/9a4abcae89db2dc07caab196746c717c265f7e960005f4eab58e0f8111e45ac2",
    "resource": {
      "resourceType": "Observation",
      "meta": {
        "profile": [ "https://www.medizininformatik-initiative.de/fhir/core/modul-labor/StructureDefinition/ObservationLab" ]
      },
      "identifier": [ {
        "type": {
          "coding": [ {
            "system": "http://terminology.hl7.org/CodeSystem/v2-0203",
            "code": "OBI",
            "display": "Observation Instance Identifier"
          } ]
        },
        "system": "https://mein.krankenhaus.de/fhir/NamingSystem/observationId",
        "value": "4aaf1f901735faf2568acdc2e6168c4b5af64b1b7d88a21bb001b43aa1ba8dcb",
        "assigner": {
          "reference": "Organization/3a4f3433bce81181bad2d8e0b8fafccf7dc800bc06f29be73dcb38b750a48f9a"
        }
      } ],
      "status": "final",
      "category": [ {
        "coding": [ {
          "system": "http://terminology.hl7.org/CodeSystem/observation-category",
          "code": "laboratory",
          "display": "Laboratory"
        }, {
          "system": "http://loinc.org",
          "code": "26436-6"
        } ]
      } ],
      "code": {
        "coding": [ {
          "system": "http://loinc.org",
          "code": "6301-6",
          "display": "inr-in-platelet-poor-plasma-by-coagulation-assay"
        } ],
        "text": "inr"
      },
      "subject": {
        "reference": "Patient/fa1fbf193f4c51fc106add59e9203c1f955a4621982a5a6d7c5f9f4f6de898b4"
      },
      "encounter": {
        "reference": "Encounter/50f75b06d3a7509c3bc56812dbdd47e96d5f4bf8e9a41fd9e691f1ee7e3102a4"
      },
      "effectiveDateTime": "2020-03-06T01:15:00+00:00",
      "valueQuantity": {
        "value": 30.50338918524057,
        "unit": "{INR}",
        "system": "http://unitsofmeasure.org",
        "code": "{INR}"
      }
    },
    "request": {
      "method": "POST",
      "url": "Observation",
      "ifNoneExist": "identifier=https://mein.krankenhaus.de/fhir/NamingSystem/observationId|9a4abcae89db2dc07caab196746c717c265f7e960005f4eab58e0f8111e45ac2"
    }
  }, {
    "fullUrl": "Observation/9300e408888d314c2faa4cde3aef9b36adf781261cc2e975cab3c38578621298",
    "resource": {
      "resourceType": "Observation",
      "meta": {
        "profile": [ "https://www.medizininformatik-initiative.de/fhir/core/modul-labor/StructureDefinition/ObservationLab" ]
      },
      "identifier": [ {
        "type": {
          "coding": [ {
            "system": "http://terminology.hl7.org/CodeSystem/v2-0203",
            "code": "OBI",
            "display": "Observation Instance Identifier"
          } ]
        },
        "system": "https://mein.krankenhaus.de/fhir/NamingSystem/observationId",
        "value": "fb2649936da5f28622cd57077061397e7e1cfffba4cc1196331af44d114030ce",
        "assigner": {
          "reference": "Organization/3a4f3433bce81181bad2d8e0b8fafccf7dc800bc06f29be73dcb38b750a48f9a"
        }
      } ],
      "status": "final",
      "category": [ {
        "coding": [ {
          "system": "http://terminology.hl7.org/CodeSystem/observation-category",
          "code": "laboratory",
          "display": "Laboratory"
        }, {
          "system": "http://loinc.org",
          "code": "26436-6"
        } ]
      } ],
      "code": {
        "coding": [ {
          "system": "http://loinc.org",
          "code": "62235-7",
          "display": "albumin-in-serum-or-plasma-by-bromocresol-green-bcg-dye-binding-method"
        } ],
        "text": "serumalbumin"
      },
      "subject": {
        "reference": "Patient/fa1fbf193f4c51fc106add59e9203c1f955a4621982a5a6d7c5f9f4f6de898b4"
      },
      "encounter": {
        "reference": "Encounter/50f75b06d3a7509c3bc56812dbdd47e96d5f4bf8e9a41fd9e691f1ee7e3102a4"
      },
      "effectiveDateTime": "2020-03-06T01:15:00+00:00",
      "valueQuantity": {
        "value": 37.55808423670827,
        "unit": "umol/L",
        "system": "http://unitsofmeasure.org",
        "code": "umol/L"
      }
    },
    "request": {
      "method": "POST",
      "url": "Observation",
      "ifNoneExist": "identifier=https://mein.krankenhaus.de/fhir/NamingSystem/observationId|9300e408888d314c2faa4cde3aef9b36adf781261cc2e975cab3c38578621298"
    }
  }, {
    "fullUrl": "Observation/825539349f00ac6b55c0ed0125494c13cdad6c31db4a949070aa3c1579611425",
    "resource": {
      "resourceType": "Observation",
      "meta": {
        "profile": [ "https://www.medizininformatik-initiative.de/fhir/core/modul-labor/StructureDefinition/ObservationLab" ]
      },
      "identifier": [ {
        "type": {
          "coding": [ {
            "system": "http://terminology.hl7.org/CodeSystem/v2-0203",
            "code": "OBI",
            "display": "Observation Instance Identifier"
          } ]
        },
        "system": "https://mein.krankenhaus.de/fhir/NamingSystem/observationId",
        "value": "426f1f9ef082fa735c9b3abd42ce053cca9b00d2d9077ef95de456a856fa9358",
        "assigner": {
          "reference": "Organization/3a4f3433bce81181bad2d8e0b8fafccf7dc800bc06f29be73dcb38b750a48f9a"
        }
      } ],
      "status": "final",
      "category": [ {
        "coding": [ {
          "system": "http://terminology.hl7.org/CodeSystem/observation-category",
          "code": "laboratory",
          "display": "Laboratory"
        }, {
          "system": "http://loinc.org",
          "code": "26436-6"
        } ]
      } ],
      "code": {
        "coding": [ {
          "system": "http://loinc.org",
          "code": "27811-9",
          "display": "antithrombin-actual-normal-in-platelet-poor-plasma-by-chromogenic-method"
        } ],
        "text": "antithrombin_iii"
      },
      "subject": {
        "reference": "Patient/fa1fbf193f4c51fc106add59e9203c1f955a4621982a5a6d7c5f9f4f6de898b4"
      },
      "encounter": {
        "reference": "Encounter/50f75b06d3a7509c3bc56812dbdd47e96d5f4bf8e9a41fd9e691f1ee7e3102a4"
      },
      "effectiveDateTime": "2020-03-06T01:15:00+00:00",
      "valueQuantity": {
        "value": 23.24518738481045,
        "unit": "%",
        "system": "http://unitsofmeasure.org",
        "code": "%"
      }
    },
    "request": {
      "method": "POST",
      "url": "Observation",
      "ifNoneExist": "identifier=https://mein.krankenhaus.de/fhir/NamingSystem/observationId|825539349f00ac6b55c0ed0125494c13cdad6c31db4a949070aa3c1579611425"
    }
  }, {
    "fullUrl": "Observation/ca3086ab6cfe80b75d06eebbd3ae7f4dd7827866f6cbb10362efd5d3dd77c082",
    "resource": {
      "resourceType": "Observation",
      "meta": {
        "profile": [ "https://www.medizininformatik-initiative.de/fhir/core/modul-labor/StructureDefinition/ObservationLab" ]
      },
      "identifier": [ {
        "type": {
          "coding": [ {
            "system": "http://terminology.hl7.org/CodeSystem/v2-0203",
            "code": "OBI",
            "display": "Observation Instance Identifier"
          } ]
        },
        "system": "https://mein.krankenhaus.de/fhir/NamingSystem/observationId",
        "value": "ace43825df29032ed4e7922a7e6f6c057fa7b21c62625a412982a264569fd879",
        "assigner": {
          "reference": "Organization/3a4f3433bce81181bad2d8e0b8fafccf7dc800bc06f29be73dcb38b750a48f9a"
        }
      } ],
      "status": "final",
      "category": [ {
        "coding": [ {
          "system": "http://terminology.hl7.org/CodeSystem/observation-category",
          "code": "laboratory",
          "display": "Laboratory"
        }, {
          "system": "http://loinc.org",
          "code": "26436-6"
        } ]
      } ],
      "code": {
        "coding": [ {
          "system": "http://loinc.org",
          "code": "33959-8",
          "display": "procalcitonin-in-serum-or-plasma"
        } ],
        "text": "pct_procalcitonin"
      },
      "subject": {
        "reference": "Patient/fa1fbf193f4c51fc106add59e9203c1f955a4621982a5a6d7c5f9f4f6de898b4"
      },
      "encounter": {
        "reference": "Encounter/50f75b06d3a7509c3bc56812dbdd47e96d5f4bf8e9a41fd9e691f1ee7e3102a4"
      },
      "effectiveDateTime": "2020-03-06T01:15:00+00:00",
      "valueQuantity": {
        "value": 60.655734685122255,
        "unit": "ng/mL",
        "system": "http://unitsofmeasure.org",
        "code": "ng/mL"
      }
    },
    "request": {
      "method": "POST",
      "url": "Observation",
      "ifNoneExist": "identifier=https://mein.krankenhaus.de/fhir/NamingSystem/observationId|ca3086ab6cfe80b75d06eebbd3ae7f4dd7827866f6cbb10362efd5d3dd77c082"
    }
  }, {
    "fullUrl": "Observation/4c63a286ae64a39a44a2931877ec02470e6a73424786a6f85ff92c2c39cab0ab",
    "resource": {
      "resourceType": "Observation",
      "meta": {
        "profile": [ "https://www.medizininformatik-initiative.de/fhir/core/modul-labor/StructureDefinition/ObservationLab" ]
      },
      "identifier": [ {
        "type": {
          "coding": [ {
            "system": "http://terminology.hl7.org/CodeSystem/v2-0203",
            "code": "OBI",
            "display": "Observation Instance Identifier"
          } ]
        },
        "system": "https://mein.krankenhaus.de/fhir/NamingSystem/observationId",
        "value": "88dfa9a70466acff3a2e812b82728b3bf3b030fd31cdd0e739c66deca8146d46",
        "assigner": {
          "reference": "Organization/3a4f3433bce81181bad2d8e0b8fafccf7dc800bc06f29be73dcb38b750a48f9a"
        }
      } ],
      "status": "final",
      "category": [ {
        "coding": [ {
          "system": "http://terminology.hl7.org/CodeSystem/observation-category",
          "code": "laboratory",
          "display": "Laboratory"
        }, {
          "system": "http://loinc.org",
          "code": "26436-6"
        } ]
      } ],
      "code": {
        "coding": [ {
          "system": "http://loinc.org",
          "code": "26881-3",
          "display": "interleukin-6-in-serum-or-plasma"
        } ],
        "text": "il6_interleukin_6"
      },
      "subject": {
        "reference": "Patient/fa1fbf193f4c51fc106add59e9203c1f955a4621982a5a6d7c5f9f4f6de898b4"
      },
      "encounter": {
        "reference": "Encounter/50f75b06d3a7509c3bc56812dbdd47e96d5f4bf8e9a41fd9e691f1ee7e3102a4"
      },
      "effectiveDateTime": "2020-03-06T01:15:00+00:00",
      "valueQuantity": {
        "value": 33.19970958543374,
        "unit": "pg/mL",
        "system": "http://unitsofmeasure.org",
        "code": "pg/mL"
      }
    },
    "request": {
      "method": "POST",
      "url": "Observation",
      "ifNoneExist": "identifier=https://mein.krankenhaus.de/fhir/NamingSystem/observationId|4c63a286ae64a39a44a2931877ec02470e6a73424786a6f85ff92c2c39cab0ab"
    }
  }, {
    "fullUrl": "Observation/06a1a69cae1beb2d5c085c3a1785fa64cddb85277d53970bdfb988ad36997589",
    "resource": {
      "resourceType": "Observation",
      "meta": {
        "profile": [ "https://www.medizininformatik-initiative.de/fhir/core/modul-labor/StructureDefinition/ObservationLab" ]
      },
      "identifier": [ {
        "type": {
          "coding": [ {
            "system": "http://terminology.hl7.org/CodeSystem/v2-0203",
            "code": "OBI",
            "display": "Observation Instance Identifier"
          } ]
        },
        "system": "https://mein.krankenhaus.de/fhir/NamingSystem/observationId",
        "value": "4a8ff76a2c91221df54c0742ea7140a31dc665dfa8e04427747059479d589a69",
        "assigner": {
          "reference": "Organization/3a4f3433bce81181bad2d8e0b8fafccf7dc800bc06f29be73dcb38b750a48f9a"
        }
      } ],
      "status": "final",
      "category": [ {
        "coding": [ {
          "system": "http://terminology.hl7.org/CodeSystem/observation-category",
          "code": "laboratory",
          "display": "Laboratory"
        }, {
          "system": "http://loinc.org",
          "code": "26436-6"
        } ]
      } ],
      "code": {
        "coding": [ {
          "system": "http://loinc.org",
          "code": "83107-3",
          "display": "natriuretic-peptide.b-prohormone-n-terminal-in-serum-or-plasma-by-immunoassay"
        } ],
        "text": "ntprobnp"
      },
      "subject": {
        "reference": "Patient/fa1fbf193f4c51fc106add59e9203c1f955a4621982a5a6d7c5f9f4f6de898b4"
      },
      "encounter": {
        "reference": "Encounter/50f75b06d3a7509c3bc56812dbdd47e96d5f4bf8e9a41fd9e691f1ee7e3102a4"
      },
      "effectiveDateTime": "2020-03-06T01:15:00+00:00",
      "valueQuantity": {
        "value": 23.943627456381677,
        "unit": "pg/mL",
        "system": "http://unitsofmeasure.org",
        "code": "pg/mL"
      }
    },
    "request": {
      "method": "POST",
      "url": "Observation",
      "ifNoneExist": "identifier=https://mein.krankenhaus.de/fhir/NamingSystem/observationId|06a1a69cae1beb2d5c085c3a1785fa64cddb85277d53970bdfb988ad36997589"
    }
  }, {
    "fullUrl": "Observation/6909e3b9682d697aefdb0b159ed5e709f6841f3d6daab72a185eb3a84400abdb",
    "resource": {
      "resourceType": "Observation",
      "meta": {
        "profile": [ "https://www.medizininformatik-initiative.de/fhir/core/modul-labor/StructureDefinition/ObservationLab" ]
      },
      "identifier": [ {
        "type": {
          "coding": [ {
            "system": "http://terminology.hl7.org/CodeSystem/v2-0203",
            "code": "OBI",
            "display": "Observation Instance Identifier"
          } ]
        },
        "system": "https://mein.krankenhaus.de/fhir/NamingSystem/observationId",
        "value": "e72d9df54e3664c2a56962351561dcc5261ed9a75c07116d3812fc9c8c949c31",
        "assigner": {
          "reference": "Organization/3a4f3433bce81181bad2d8e0b8fafccf7dc800bc06f29be73dcb38b750a48f9a"
        }
      } ],
      "status": "final",
      "category": [ {
        "coding": [ {
          "system": "http://terminology.hl7.org/CodeSystem/observation-category",
          "code": "laboratory",
          "display": "Laboratory"
        }, {
          "system": "http://loinc.org",
          "code": "26436-6"
        } ]
      } ],
      "code": {
        "coding": [ {
          "system": "http://loinc.org",
          "code": "48664-7",
          "display": "fibrinogen-in-platelet-poor-plasma-by-coagulation.derived"
        } ],
        "text": "fibrinogen"
      },
      "subject": {
        "reference": "Patient/fa1fbf193f4c51fc106add59e9203c1f955a4621982a5a6d7c5f9f4f6de898b4"
      },
      "encounter": {
        "reference": "Encounter/50f75b06d3a7509c3bc56812dbdd47e96d5f4bf8e9a41fd9e691f1ee7e3102a4"
      },
      "effectiveDateTime": "2020-03-06T01:15:00+00:00",
      "valueQuantity": {
        "value": 74.6335747848164,
        "unit": "g/L",
        "system": "http://unitsofmeasure.org",
        "code": "g/L"
      }
    },
    "request": {
      "method": "POST",
      "url": "Observation",
      "ifNoneExist": "identifier=https://mein.krankenhaus.de/fhir/NamingSystem/observationId|6909e3b9682d697aefdb0b159ed5e709f6841f3d6daab72a185eb3a84400abdb"
    }
  }, {
    "fullUrl": "Observation/14f73d23664cd1e020a004672a0c56b3c3546153d9a068b4450262cd7941785e",
    "resource": {
      "resourceType": "Observation",
      "meta": {
        "profile": [ "https://www.netzwerk-universitaetsmedizin.de/fhir/StructureDefinition/sars-cov-2-rt-pcr" ]
      },
      "identifier": [ {
        "type": {
          "coding": [ {
            "system": "http://terminology.hl7.org/CodeSystem/v2-0203",
            "code": "OBI",
            "display": "Observation Instance Identifier"
          } ]
        },
        "system": "https://mein.krankenhaus.de/fhir/NamingSystem/observationId",
        "value": "740348172feb148c3ac03c323fdabd441a3b0e371bbb2c2191070a17be4f944d",
        "assigner": {
          "reference": "Organization/3a4f3433bce81181bad2d8e0b8fafccf7dc800bc06f29be73dcb38b750a48f9a"
        }
      } ],
      "status": "final",
      "category": [ {
        "coding": [ {
          "system": "http://terminology.hl7.org/CodeSystem/observation-category",
          "code": "laboratory",
          "display": "Laboratory"
        }, {
          "system": "http://loinc.org",
          "code": "26436-6"
        } ]
      } ],
      "code": {
        "coding": [ {
          "system": "http://loinc.org",
          "code": "94500-6",
          "display": "sars-cov-2-covid-19-rna-in-respiratory-specimen-by-naa-with-probe-detection"
        } ],
        "text": "SARS-CoV-2-RNA (PCR)"
      },
      "subject": {
        "reference": "Patient/fa1fbf193f4c51fc106add59e9203c1f955a4621982a5a6d7c5f9f4f6de898b4"
      },
      "encounter": {
        "reference": "Encounter/50f75b06d3a7509c3bc56812dbdd47e96d5f4bf8e9a41fd9e691f1ee7e3102a4"
      },
      "effectiveDateTime": "2020-03-06T01:15:00+00:00",
      "valueCodeableConcept": {
        "coding": [ {
          "system": "http://snomed.info/sct",
          "code": "419984006",
          "display": "Inconclusive (qualifier value)"
        } ],
        "text": "SARS-CoV-2-RNA nicht eindeutig"
      }
    },
    "request": {
      "method": "POST",
      "url": "Observation",
      "ifNoneExist": "identifier=https://mein.krankenhaus.de/fhir/NamingSystem/observationId|14f73d23664cd1e020a004672a0c56b3c3546153d9a068b4450262cd7941785e"
    }
  }, {
    "fullUrl": "Observation/ab53be2bd68110cb935b407ce4ff300a3265f3516e1db7b5b53d6d61b6a4e2c1",
    "resource": {
      "resourceType": "Observation",
      "meta": {
        "profile": [ "https://www.netzwerk-universitaetsmedizin.de/fhir/StructureDefinition/sars-cov-2-ab-pnl-ser-pl-ia" ]
      },
      "identifier": [ {
        "type": {
          "coding": [ {
            "system": "http://terminology.hl7.org/CodeSystem/v2-0203",
            "code": "OBI",
            "display": "Observation Instance Identifier"
          } ]
        },
        "system": "https://mein.krankenhaus.de/fhir/NamingSystem/observationId",
        "value": "67f757d1f3d2ff1363af3c5fd4b9a3c0eae2a5c567778431b2ab96ea90261b46",
        "assigner": {
          "reference": "Organization/3a4f3433bce81181bad2d8e0b8fafccf7dc800bc06f29be73dcb38b750a48f9a"
        }
      } ],
      "status": "final",
      "category": [ {
        "coding": [ {
          "system": "http://terminology.hl7.org/CodeSystem/observation-category",
          "code": "laboratory",
          "display": "Laboratory"
        }, {
          "system": "http://loinc.org",
          "code": "26436-6"
        } ]
      } ],
      "code": {
        "coding": [ {
          "system": "http://loinc.org",
          "code": "94504-8"
        } ],
        "text": "sarsco_v2_covid19_ab_pnl"
      },
      "subject": {
        "reference": "Patient/fa1fbf193f4c51fc106add59e9203c1f955a4621982a5a6d7c5f9f4f6de898b4"
      },
      "encounter": {
        "reference": "Encounter/50f75b06d3a7509c3bc56812dbdd47e96d5f4bf8e9a41fd9e691f1ee7e3102a4"
      },
      "effectiveDateTime": "2020-03-06T01:15:00+00:00",
      "hasMember": [ {
        "reference": "Observation/3c50258e2d153776facfc607b5f446021fecca2b81414902ea0a8ee7ed54001e"
      }, {
        "reference": "Observation/667c38a8eccb3d58a1abca8115f11d3159d09df9b13d3d1aada266b1363b35b4"
      }, {
        "reference": "Observation/449539157c1bab693719cc6e3dd9bcce4d094045845feda3a5125660909acacb"
      }, {
        "reference": "Observation/7b1afe183a59fec039e87c3aae0cd82a0cbe5f9c365f55e2d2349abcccd0c7b9"
      }, {
        "reference": "Observation/ee20d75edb89afd58621bcb4ae9dd8f46c2fecc4af21a1be07e24abea1de07cd"
      }, {
        "reference": "Observation/fce221baa2045a3569b85f5a1e660a6907bbd28eec3adbe2ce5c1fcfc0c4da4e"
      } ]
    },
    "request": {
      "method": "POST",
      "url": "Observation",
      "ifNoneExist": "identifier=https://mein.krankenhaus.de/fhir/NamingSystem/observationId|ab53be2bd68110cb935b407ce4ff300a3265f3516e1db7b5b53d6d61b6a4e2c1"
    }
  }, {
    "fullUrl": "Observation/3c50258e2d153776facfc607b5f446021fecca2b81414902ea0a8ee7ed54001e",
    "resource": {
      "resourceType": "Observation",
      "meta": {
        "profile": [ "https://www.netzwerk-universitaetsmedizin.de/fhir/StructureDefinition/sars-cov-2-ab-ser-pl-ql-ia" ]
      },
      "identifier": [ {
        "type": {
          "coding": [ {
            "system": "http://terminology.hl7.org/CodeSystem/v2-0203",
            "code": "OBI",
            "display": "Observation Instance Identifier"
          } ]
        },
        "system": "https://mein.krankenhaus.de/fhir/NamingSystem/observationId",
        "value": "959cbef844af6a441ec79cc8e9ba6a35c8b63964fa649d235d93d94e26415561",
        "assigner": {
          "reference": "Organization/3a4f3433bce81181bad2d8e0b8fafccf7dc800bc06f29be73dcb38b750a48f9a"
        }
      } ],
      "status": "final",
      "category": [ {
        "coding": [ {
          "system": "http://terminology.hl7.org/CodeSystem/observation-category",
          "code": "laboratory",
          "display": "Laboratory"
        }, {
          "system": "http://loinc.org",
          "code": "26436-6"
        } ]
      } ],
      "code": {
        "coding": [ {
          "system": "http://loinc.org",
          "code": "94762-2",
          "display": "sars-cov-2-covid-19-ab-in-serum-or-plasma-by-immunoassay"
        } ],
        "text": "sarsco_v2_covid19_ab_ia_ql"
      },
      "subject": {
        "reference": "Patient/fa1fbf193f4c51fc106add59e9203c1f955a4621982a5a6d7c5f9f4f6de898b4"
      },
      "encounter": {
        "reference": "Encounter/50f75b06d3a7509c3bc56812dbdd47e96d5f4bf8e9a41fd9e691f1ee7e3102a4"
      },
      "effectiveDateTime": "2020-03-06T01:15:00+00:00",
      "valueCodeableConcept": {
        "coding": [ {
          "system": "http://snomed.info/sct",
          "code": "260415000"
        } ]
      }
    },
    "request": {
      "method": "POST",
      "url": "Observation",
      "ifNoneExist": "identifier=https://mein.krankenhaus.de/fhir/NamingSystem/observationId|3c50258e2d153776facfc607b5f446021fecca2b81414902ea0a8ee7ed54001e"
    }
  }, {
    "fullUrl": "Observation/667c38a8eccb3d58a1abca8115f11d3159d09df9b13d3d1aada266b1363b35b4",
    "resource": {
      "resourceType": "Observation",
      "meta": {
        "profile": [ "https://www.netzwerk-universitaetsmedizin.de/fhir/StructureDefinition/sars-cov-2-ab-ser-pl-ia-acnc" ]
      },
      "identifier": [ {
        "type": {
          "coding": [ {
            "system": "http://terminology.hl7.org/CodeSystem/v2-0203",
            "code": "OBI",
            "display": "Observation Instance Identifier"
          } ]
        },
        "system": "https://mein.krankenhaus.de/fhir/NamingSystem/observationId",
        "value": "1b9ea082c446a1fdf3b773f40674ad9822fe304962e2298cfc09695c1ffebdd9",
        "assigner": {
          "reference": "Organization/3a4f3433bce81181bad2d8e0b8fafccf7dc800bc06f29be73dcb38b750a48f9a"
        }
      } ],
      "status": "final",
      "category": [ {
        "coding": [ {
          "system": "http://terminology.hl7.org/CodeSystem/observation-category",
          "code": "laboratory",
          "display": "Laboratory"
        }, {
          "system": "http://loinc.org",
          "code": "26436-6"
        } ]
      } ],
      "code": {
        "coding": [ {
          "system": "http://loinc.org",
          "code": "94769-7",
          "display": "sars-cov-2-covid-19-ab-in-serum-or-plasma-by-immunoassay"
        } ],
        "text": "sarsco_v2_covid19_ab_ia_qn"
      },
      "subject": {
        "reference": "Patient/fa1fbf193f4c51fc106add59e9203c1f955a4621982a5a6d7c5f9f4f6de898b4"
      },
      "encounter": {
        "reference": "Encounter/50f75b06d3a7509c3bc56812dbdd47e96d5f4bf8e9a41fd9e691f1ee7e3102a4"
      },
      "effectiveDateTime": "2020-03-06T01:15:00+00:00",
      "valueQuantity": {
        "value": 56.55092954978615,
        "unit": "[IU]/mL",
        "system": "http://unitsofmeasure.org",
        "code": "[IU]/mL"
      }
    },
    "request": {
      "method": "POST",
      "url": "Observation",
      "ifNoneExist": "identifier=https://mein.krankenhaus.de/fhir/NamingSystem/observationId|667c38a8eccb3d58a1abca8115f11d3159d09df9b13d3d1aada266b1363b35b4"
    }
  }, {
    "fullUrl": "Observation/449539157c1bab693719cc6e3dd9bcce4d094045845feda3a5125660909acacb",
    "resource": {
      "resourceType": "Observation",
      "meta": {
        "profile": [ "https://www.netzwerk-universitaetsmedizin.de/fhir/StructureDefinition/sars-cov-2-iga-ser-pl-ql-ia" ]
      },
      "identifier": [ {
        "type": {
          "coding": [ {
            "system": "http://terminology.hl7.org/CodeSystem/v2-0203",
            "code": "OBI",
            "display": "Observation Instance Identifier"
          } ]
        },
        "system": "https://mein.krankenhaus.de/fhir/NamingSystem/observationId",
        "value": "6499247e0cef7ddadfe3389b9be64f18c4179f4ad0c317a798a82313fffbed64",
        "assigner": {
          "reference": "Organization/3a4f3433bce81181bad2d8e0b8fafccf7dc800bc06f29be73dcb38b750a48f9a"
        }
      } ],
      "status": "final",
      "category": [ {
        "coding": [ {
          "system": "http://terminology.hl7.org/CodeSystem/observation-category",
          "code": "laboratory",
          "display": "Laboratory"
        }, {
          "system": "http://loinc.org",
          "code": "26436-6"
        } ]
      } ],
      "code": {
        "coding": [ {
          "system": "http://loinc.org",
          "code": "94562-6",
          "display": "sars-cov-2-covid-19-iga-ab-in-serum-or-plasma-by-immunoassay"
        } ],
        "text": "sarsco_v2_covid19_ig_a_ia_ql"
      },
      "subject": {
        "reference": "Patient/fa1fbf193f4c51fc106add59e9203c1f955a4621982a5a6d7c5f9f4f6de898b4"
      },
      "encounter": {
        "reference": "Encounter/50f75b06d3a7509c3bc56812dbdd47e96d5f4bf8e9a41fd9e691f1ee7e3102a4"
      },
      "effectiveDateTime": "2020-03-06T01:15:00+00:00",
      "valueCodeableConcept": {
        "coding": [ {
          "system": "http://snomed.info/sct",
          "code": "260373001"
        } ]
      }
    },
    "request": {
      "method": "POST",
      "url": "Observation",
      "ifNoneExist": "identifier=https://mein.krankenhaus.de/fhir/NamingSystem/observationId|449539157c1bab693719cc6e3dd9bcce4d094045845feda3a5125660909acacb"
    }
  }, {
    "fullUrl": "Observation/7b1afe183a59fec039e87c3aae0cd82a0cbe5f9c365f55e2d2349abcccd0c7b9",
    "resource": {
      "resourceType": "Observation",
      "meta": {
        "profile": [ "https://www.netzwerk-universitaetsmedizin.de/fhir/StructureDefinition/sars-cov-2-iga-ser-pl-ia-acnc" ]
      },
      "identifier": [ {
        "type": {
          "coding": [ {
            "system": "http://terminology.hl7.org/CodeSystem/v2-0203",
            "code": "OBI",
            "display": "Observation Instance Identifier"
          } ]
        },
        "system": "https://mein.krankenhaus.de/fhir/NamingSystem/observationId",
        "value": "8d9b3b96edf93685e344d97438753b37ca0b151c049908be1fd5550ff88046f5",
        "assigner": {
          "reference": "Organization/3a4f3433bce81181bad2d8e0b8fafccf7dc800bc06f29be73dcb38b750a48f9a"
        }
      } ],
      "status": "final",
      "category": [ {
        "coding": [ {
          "system": "http://terminology.hl7.org/CodeSystem/observation-category",
          "code": "laboratory",
          "display": "Laboratory"
        }, {
          "system": "http://loinc.org",
          "code": "26436-6"
        } ]
      } ],
      "code": {
        "coding": [ {
          "system": "http://loinc.org",
          "code": "94720-0",
          "display": "sars-cov-2-covid-19-iga-ab-in-serum-or-plasma-by-immunoassay"
        } ],
        "text": "sarsco_v2_covid19_ig_a_ia_qn"
      },
      "subject": {
        "reference": "Patient/fa1fbf193f4c51fc106add59e9203c1f955a4621982a5a6d7c5f9f4f6de898b4"
      },
      "encounter": {
        "reference": "Encounter/50f75b06d3a7509c3bc56812dbdd47e96d5f4bf8e9a41fd9e691f1ee7e3102a4"
      },
      "effectiveDateTime": "2020-03-06T01:15:00+00:00",
      "valueQuantity": {
        "value": 32.87932841101502,
        "unit": "[IU]/mL",
        "system": "http://unitsofmeasure.org",
        "code": "[IU]/mL"
      }
    },
    "request": {
      "method": "POST",
      "url": "Observation",
      "ifNoneExist": "identifier=https://mein.krankenhaus.de/fhir/NamingSystem/observationId|7b1afe183a59fec039e87c3aae0cd82a0cbe5f9c365f55e2d2349abcccd0c7b9"
    }
  }, {
    "fullUrl": "Observation/ee20d75edb89afd58621bcb4ae9dd8f46c2fecc4af21a1be07e24abea1de07cd",
    "resource": {
      "resourceType": "Observation",
      "meta": {
        "profile": [ "https://www.netzwerk-universitaetsmedizin.de/fhir/StructureDefinition/sars-cov-2-igm-ser-pl-ql-ia" ]
      },
      "identifier": [ {
        "type": {
          "coding": [ {
            "system": "http://terminology.hl7.org/CodeSystem/v2-0203",
            "code": "OBI",
            "display": "Observation Instance Identifier"
          } ]
        },
        "system": "https://mein.krankenhaus.de/fhir/NamingSystem/observationId",
        "value": "591cdd435f60e685a79819366df120a094374fba8cc291039e7b46c75884ce7c",
        "assigner": {
          "reference": "Organization/3a4f3433bce81181bad2d8e0b8fafccf7dc800bc06f29be73dcb38b750a48f9a"
        }
      } ],
      "status": "final",
      "category": [ {
        "coding": [ {
          "system": "http://terminology.hl7.org/CodeSystem/observation-category",
          "code": "laboratory",
          "display": "Laboratory"
        }, {
          "system": "http://loinc.org",
          "code": "26436-6"
        } ]
      } ],
      "code": {
        "coding": [ {
          "system": "http://loinc.org",
          "code": "94564-2",
          "display": "sars-cov-2-covid-19-igm-ab-in-serum-or-plasma-by-immunoassay"
        } ],
        "text": "sarsco_v2_covid19_ig_m_ia_ql"
      },
      "subject": {
        "reference": "Patient/fa1fbf193f4c51fc106add59e9203c1f955a4621982a5a6d7c5f9f4f6de898b4"
      },
      "encounter": {
        "reference": "Encounter/50f75b06d3a7509c3bc56812dbdd47e96d5f4bf8e9a41fd9e691f1ee7e3102a4"
      },
      "effectiveDateTime": "2020-03-06T01:15:00+00:00",
      "valueCodeableConcept": {
        "coding": [ {
          "system": "http://snomed.info/sct",
          "code": "260373001"
        } ]
      }
    },
    "request": {
      "method": "POST",
      "url": "Observation",
      "ifNoneExist": "identifier=https://mein.krankenhaus.de/fhir/NamingSystem/observationId|ee20d75edb89afd58621bcb4ae9dd8f46c2fecc4af21a1be07e24abea1de07cd"
    }
  }, {
    "fullUrl": "Observation/fce221baa2045a3569b85f5a1e660a6907bbd28eec3adbe2ce5c1fcfc0c4da4e",
    "resource": {
      "resourceType": "Observation",
      "meta": {
        "profile": [ "https://www.netzwerk-universitaetsmedizin.de/fhir/StructureDefinition/sars-cov-2-igm-ser-pl-ia-acnc" ]
      },
      "identifier": [ {
        "type": {
          "coding": [ {
            "system": "http://terminology.hl7.org/CodeSystem/v2-0203",
            "code": "OBI",
            "display": "Observation Instance Identifier"
          } ]
        },
        "system": "https://mein.krankenhaus.de/fhir/NamingSystem/observationId",
        "value": "236c93b4fee9b65d497888d050b1338f0e0c8f0e5b86d679e3219ac2557ecd98",
        "assigner": {
          "reference": "Organization/3a4f3433bce81181bad2d8e0b8fafccf7dc800bc06f29be73dcb38b750a48f9a"
        }
      } ],
      "status": "final",
      "category": [ {
        "coding": [ {
          "system": "http://terminology.hl7.org/CodeSystem/observation-category",
          "code": "laboratory",
          "display": "Laboratory"
        }, {
          "system": "http://loinc.org",
          "code": "26436-6"
        } ]
      } ],
      "code": {
        "coding": [ {
          "system": "http://loinc.org",
          "code": "94506-3",
          "display": "sars-cov-2-covid-19-igm-ab-in-serum-or-plasma-by-immunoassay"
        } ],
        "text": "sarsco_v2_covid19_ig_m_ia_qn"
      },
      "subject": {
        "reference": "Patient/fa1fbf193f4c51fc106add59e9203c1f955a4621982a5a6d7c5f9f4f6de898b4"
      },
      "encounter": {
        "reference": "Encounter/50f75b06d3a7509c3bc56812dbdd47e96d5f4bf8e9a41fd9e691f1ee7e3102a4"
      },
      "effectiveDateTime": "2020-03-06T01:15:00+00:00",
      "valueQuantity": {
        "value": 50.655627733228734,
        "unit": "[arb'U]/mL",
        "system": "http://unitsofmeasure.org",
        "code": "[arb'U]/mL"
      }
    },
    "request": {
      "method": "POST",
      "url": "Observation",
      "ifNoneExist": "identifier=https://mein.krankenhaus.de/fhir/NamingSystem/observationId|fce221baa2045a3569b85f5a1e660a6907bbd28eec3adbe2ce5c1fcfc0c4da4e"
    }
  }, {
    "fullUrl": "MedicationStatement/2cb3589265e4f6129e9edce0a35df1eb27c2b6decc2b54242e099e3a3c909a91",
    "resource": {
      "resourceType": "MedicationStatement",
      "meta": {
        "profile": [ "https://www.netzwerk-universitaetsmedizin.de/fhir/StructureDefinition/pharmacological-therapy" ]
      },
      "identifier": [ {
        "system": "https://mein.krankenhaus.de/fhir/NamingSystem/medicationstatementId",
        "value": "20dbe7d084eb024abde6bd7c6bb7ffe8ab025a4d9b85868bb3a223d954b09b91"
      } ],
      "status": "not-taken",
      "medicationCodeableConcept": {
        "coding": [ {
          "system": "http://snomed.info/sct",
          "code": "41549009"
        } ],
        "text": "ACE inhibitors"
      },
      "subject": {
        "reference": "Patient/fa1fbf193f4c51fc106add59e9203c1f955a4621982a5a6d7c5f9f4f6de898b4"
      },
      "effectiveDateTime": "2020-03-12T03:32:00+00:00"
    },
    "request": {
      "method": "POST",
      "url": "MedicationStatement",
      "ifNoneExist": "identifier=https://mein.krankenhaus.de/fhir/NamingSystem/medicationstatementId|2cb3589265e4f6129e9edce0a35df1eb27c2b6decc2b54242e099e3a3c909a91"
    }
  }, {
    "fullUrl": "MedicationStatement/6b4516c484379e25b6ecc090682b24bcb6ab7e27a75d4496cd5923760c2316bf",
    "resource": {
      "resourceType": "MedicationStatement",
      "meta": {
        "profile": [ "https://www.netzwerk-universitaetsmedizin.de/fhir/StructureDefinition/pharmacological-therapy" ]
      },
      "identifier": [ {
        "system": "https://mein.krankenhaus.de/fhir/NamingSystem/medicationstatementId",
        "value": "107ef0b700c9191e4a39cc74925fef7fe6a189cfb2f1e0e4139cdbec2a3ee192"
      } ],
      "status": "active",
      "medicationCodeableConcept": {
        "coding": [ {
          "system": "http://snomed.info/sct",
          "code": "333710000"
        } ],
        "text": "immunoglobulins"
      },
      "subject": {
        "reference": "Patient/fa1fbf193f4c51fc106add59e9203c1f955a4621982a5a6d7c5f9f4f6de898b4"
      },
      "effectiveDateTime": "2020-03-12T03:32:00+00:00"
    },
    "request": {
      "method": "POST",
      "url": "MedicationStatement",
      "ifNoneExist": "identifier=https://mein.krankenhaus.de/fhir/NamingSystem/medicationstatementId|6b4516c484379e25b6ecc090682b24bcb6ab7e27a75d4496cd5923760c2316bf"
    }
  }, {
    "fullUrl": "MedicationStatement/6a1f9a7634e76ac85beea468246b2dab5e9e64cffef734f52fca14ec1d067228",
    "resource": {
      "resourceType": "MedicationStatement",
      "meta": {
        "profile": [ "https://www.netzwerk-universitaetsmedizin.de/fhir/StructureDefinition/pharmacological-therapy" ]
      },
      "identifier": [ {
        "system": "https://mein.krankenhaus.de/fhir/NamingSystem/medicationstatementId",
        "value": "f89bd7caa7c05694c7e80febb73e2168754dab9f0df3053c3bd5d0dafa1e9956"
      } ],
      "status": "active",
      "medicationCodeableConcept": {
        "coding": [ {
          "system": "http://snomed.info/sct",
          "code": "41549009"
        } ],
        "text": "ACE inhibitors"
      },
      "subject": {
        "reference": "Patient/fa1fbf193f4c51fc106add59e9203c1f955a4621982a5a6d7c5f9f4f6de898b4"
      },
      "effectiveDateTime": "2020-09-27T12:45:00+00:00"
    },
    "request": {
      "method": "POST",
      "url": "MedicationStatement",
      "ifNoneExist": "identifier=https://mein.krankenhaus.de/fhir/NamingSystem/medicationstatementId|6a1f9a7634e76ac85beea468246b2dab5e9e64cffef734f52fca14ec1d067228"
    }
  }, {
    "fullUrl": "MedicationStatement/02d026662b7258e3b957d10feff21b14e51d3b0f1e9c192a62ecd4eb72897c00",
    "resource": {
      "resourceType": "MedicationStatement",
      "meta": {
        "profile": [ "https://www.netzwerk-universitaetsmedizin.de/fhir/StructureDefinition/pharmacological-therapy" ]
      },
      "identifier": [ {
        "system": "https://mein.krankenhaus.de/fhir/NamingSystem/medicationstatementId",
        "value": "2ab9aef75abb6eb41484b88137db1bd0180dcfa43594d24fca4e20e40e2912c4"
      } ],
      "status": "not-taken",
      "medicationCodeableConcept": {
        "coding": [ {
          "system": "http://snomed.info/sct",
          "code": "333710000"
        } ],
        "text": "immunoglobulins"
      },
      "subject": {
        "reference": "Patient/fa1fbf193f4c51fc106add59e9203c1f955a4621982a5a6d7c5f9f4f6de898b4"
      },
      "effectiveDateTime": "2020-09-27T12:45:00+00:00"
    },
    "request": {
      "method": "POST",
      "url": "MedicationStatement",
      "ifNoneExist": "identifier=https://mein.krankenhaus.de/fhir/NamingSystem/medicationstatementId|02d026662b7258e3b957d10feff21b14e51d3b0f1e9c192a62ecd4eb72897c00"
    }
  }, {
    "fullUrl": "MedicationStatement/dced5247da7876b98630669b7f3dbb6dfc2d717cdedbd27f34a334f05c4f8fef",
    "resource": {
      "resourceType": "MedicationStatement",
      "meta": {
        "profile": [ "https://www.netzwerk-universitaetsmedizin.de/fhir/StructureDefinition/pharmacological-therapy-anticoagulants" ]
      },
      "identifier": [ {
        "system": "https://mein.krankenhaus.de/fhir/NamingSystem/medicationstatementId",
        "value": "1190eeb63e4e39665c74c99568974ca6b30535d867507d8275e2a71bb5981fa5"
      } ],
      "status": "unknown",
      "medicationCodeableConcept": {
        "coding": [ {
          "system": "http://snomed.info/sct",
          "code": "81839001"
        }, {
          "system": "http://fhir.de/CodeSystem/dimdi/atc",
          "code": "B01AB01"
        }, {
          "system": "http://fhir.de/CodeSystem/dimdi/atc",
          "code": "B01AB51"
        } ]
      },
      "subject": {
        "reference": "Patient/fa1fbf193f4c51fc106add59e9203c1f955a4621982a5a6d7c5f9f4f6de898b4"
      },
      "effectiveDateTime": "2020-09-27T12:45:00+00:00",
      "reasonCode": [ {
        "coding": [ {
          "system": "http://snomed.info/sct",
          "code": "373808002",
          "display": "Curative - procedure intent (qualifier value)"
        } ]
      } ]
    },
    "request": {
      "method": "POST",
      "url": "MedicationStatement",
      "ifNoneExist": "identifier=https://mein.krankenhaus.de/fhir/NamingSystem/medicationstatementId|dced5247da7876b98630669b7f3dbb6dfc2d717cdedbd27f34a334f05c4f8fef"
    }
  }, {
    "fullUrl": "MedicationStatement/ffca1a72a451a90385818cef677bc0564295049bf60f0dfb687f5f28b1aa02da",
    "resource": {
      "resourceType": "MedicationStatement",
      "meta": {
        "profile": [ "https://www.netzwerk-universitaetsmedizin.de/fhir/StructureDefinition/pharmacological-therapy-anticoagulants" ]
      },
      "identifier": [ {
        "system": "https://mein.krankenhaus.de/fhir/NamingSystem/medicationstatementId",
        "value": "0a0b29d1e3e537bd2112848dc6161cc401312b3a3095e191d986fa7cfe4c74df"
      } ],
      "status": "active",
      "medicationCodeableConcept": {
        "coding": [ {
          "system": "http://snomed.info/sct",
          "code": "81839001"
        }, {
          "system": "http://fhir.de/CodeSystem/dimdi/atc",
          "code": "B01AB10"
        } ]
      },
      "subject": {
        "reference": "Patient/fa1fbf193f4c51fc106add59e9203c1f955a4621982a5a6d7c5f9f4f6de898b4"
      },
      "effectiveDateTime": "2020-09-27T12:45:00+00:00",
      "reasonCode": [ {
        "coding": [ {
          "system": "http://snomed.info/sct",
          "code": "373808002",
          "display": "Curative - procedure intent (qualifier value)"
        } ]
      } ]
    },
    "request": {
      "method": "POST",
      "url": "MedicationStatement",
      "ifNoneExist": "identifier=https://mein.krankenhaus.de/fhir/NamingSystem/medicationstatementId|ffca1a72a451a90385818cef677bc0564295049bf60f0dfb687f5f28b1aa02da"
    }
  }, {
    "fullUrl": "MedicationStatement/3695f34cf059041287ee5b64312688ae9b62524919122d9ff04f724ed6bfc3bd",
    "resource": {
      "resourceType": "MedicationStatement",
      "meta": {
        "profile": [ "https://www.netzwerk-universitaetsmedizin.de/fhir/StructureDefinition/pharmacological-therapy-anticoagulants" ]
      },
      "identifier": [ {
        "system": "https://mein.krankenhaus.de/fhir/NamingSystem/medicationstatementId",
        "value": "4f6751908bbed5512d022ceed3635a2a4c23c4be892f12fd5352a12e5614c7b2"
      } ],
      "status": "active",
      "medicationCodeableConcept": {
        "coding": [ {
          "system": "http://snomed.info/sct",
          "code": "81839001"
        }, {
          "system": "http://fhir.de/CodeSystem/dimdi/atc",
          "code": "B01AE03"
        } ]
      },
      "subject": {
        "reference": "Patient/fa1fbf193f4c51fc106add59e9203c1f955a4621982a5a6d7c5f9f4f6de898b4"
      },
      "effectiveDateTime": "2020-09-27T12:45:00+00:00",
      "reasonCode": [ {
        "coding": [ {
          "system": "http://snomed.info/sct",
          "code": "373808002",
          "display": "Curative - procedure intent (qualifier value)"
        } ]
      } ]
    },
    "request": {
      "method": "POST",
      "url": "MedicationStatement",
      "ifNoneExist": "identifier=https://mein.krankenhaus.de/fhir/NamingSystem/medicationstatementId|3695f34cf059041287ee5b64312688ae9b62524919122d9ff04f724ed6bfc3bd"
    }
  }, {
    "fullUrl": "MedicationStatement/5ee7fe613100099bf4e86a1b0575eb7adaced3d7618fdaa0aba5b960008e52f4",
    "resource": {
      "resourceType": "MedicationStatement",
      "meta": {
        "profile": [ "https://www.netzwerk-universitaetsmedizin.de/fhir/StructureDefinition/pharmacological-therapy-anticoagulants" ]
      },
      "identifier": [ {
        "system": "https://mein.krankenhaus.de/fhir/NamingSystem/medicationstatementId",
        "value": "01a38732b474aa8903a7b48a0cb63ae3d99592d30d9a4d7e3f41f84883aec89d"
      } ],
      "status": "active",
      "medicationCodeableConcept": {
        "coding": [ {
          "system": "http://snomed.info/sct",
          "code": "81839001"
        }, {
          "system": "http://fhir.de/CodeSystem/dimdi/atc",
          "code": "B01AC"
        } ]
      },
      "subject": {
        "reference": "Patient/fa1fbf193f4c51fc106add59e9203c1f955a4621982a5a6d7c5f9f4f6de898b4"
      },
      "effectiveDateTime": "2020-09-27T12:45:00+00:00",
      "reasonCode": [ {
        "coding": [ {
          "system": "http://snomed.info/sct",
          "code": "373808002",
          "display": "Curative - procedure intent (qualifier value)"
        } ]
      } ]
    },
    "request": {
      "method": "POST",
      "url": "MedicationStatement",
      "ifNoneExist": "identifier=https://mein.krankenhaus.de/fhir/NamingSystem/medicationstatementId|5ee7fe613100099bf4e86a1b0575eb7adaced3d7618fdaa0aba5b960008e52f4"
    }
  }, {
    "fullUrl": "MedicationStatement/a047da1ac858cf4fdcb2bbe48f51d6c572e3da57127786af9a8f8647235bf310",
    "resource": {
      "resourceType": "MedicationStatement",
      "meta": {
        "profile": [ "https://www.netzwerk-universitaetsmedizin.de/fhir/StructureDefinition/pharmacological-therapy-anticoagulants" ]
      },
      "identifier": [ {
        "system": "https://mein.krankenhaus.de/fhir/NamingSystem/medicationstatementId",
        "value": "56a7bdb1c9a5029625f61527b7db65a69a6823eabd743b4ba9f57ae9a7658f38"
      } ],
      "status": "active",
      "medicationCodeableConcept": {
        "coding": [ {
          "system": "http://snomed.info/sct",
          "code": "81839001"
        }, {
          "system": "http://fhir.de/CodeSystem/dimdi/atc",
          "code": "B01AB09"
        } ]
      },
      "subject": {
        "reference": "Patient/fa1fbf193f4c51fc106add59e9203c1f955a4621982a5a6d7c5f9f4f6de898b4"
      },
      "effectiveDateTime": "2020-09-27T12:45:00+00:00",
      "reasonCode": [ {
        "coding": [ {
          "system": "http://snomed.info/sct",
          "code": "373808002",
          "display": "Curative - procedure intent (qualifier value)"
        } ]
      } ]
    },
    "request": {
      "method": "POST",
      "url": "MedicationStatement",
      "ifNoneExist": "identifier=https://mein.krankenhaus.de/fhir/NamingSystem/medicationstatementId|a047da1ac858cf4fdcb2bbe48f51d6c572e3da57127786af9a8f8647235bf310"
    }
  }, {
    "fullUrl": "MedicationStatement/edea2ddb5f66112dd58828c725b243e04b263055be55019e066c8c4049a9ba2a",
    "resource": {
      "resourceType": "MedicationStatement",
      "meta": {
        "profile": [ "https://www.netzwerk-universitaetsmedizin.de/fhir/StructureDefinition/pharmacological-therapy-anticoagulants" ]
      },
      "identifier": [ {
        "system": "https://mein.krankenhaus.de/fhir/NamingSystem/medicationstatementId",
        "value": "4ba6bcd07156a415ece6725c3485bb81d1c4c8fc30fa225b4a18dca47c39eb3a"
      } ],
      "status": "active",
      "medicationCodeableConcept": {
        "coding": [ {
          "system": "http://snomed.info/sct",
          "code": "81839001"
        }, {
          "system": "http://fhir.de/CodeSystem/dimdi/atc",
          "code": "B01AA04"
        } ]
      },
      "subject": {
        "reference": "Patient/fa1fbf193f4c51fc106add59e9203c1f955a4621982a5a6d7c5f9f4f6de898b4"
      },
      "effectiveDateTime": "2020-09-27T12:45:00+00:00",
      "reasonCode": [ {
        "coding": [ {
          "system": "http://snomed.info/sct",
          "code": "373808002",
          "display": "Curative - procedure intent (qualifier value)"
        } ]
      } ]
    },
    "request": {
      "method": "POST",
      "url": "MedicationStatement",
      "ifNoneExist": "identifier=https://mein.krankenhaus.de/fhir/NamingSystem/medicationstatementId|edea2ddb5f66112dd58828c725b243e04b263055be55019e066c8c4049a9ba2a"
    }
  }, {
    "fullUrl": "MedicationStatement/951e5e4b0ea34f5b14172a07640703b33771b0498c00ef93b218af0ce89e53c7",
    "resource": {
      "resourceType": "MedicationStatement",
      "meta": {
        "profile": [ "https://www.netzwerk-universitaetsmedizin.de/fhir/StructureDefinition/pharmacological-therapy-anticoagulants" ]
      },
      "identifier": [ {
        "system": "https://mein.krankenhaus.de/fhir/NamingSystem/medicationstatementId",
        "value": "7032e18ae63e27a5f218e916f3dcf14c64b40b16fcc857c93b03fe1945546beb"
      } ],
      "status": "unknown",
      "medicationCodeableConcept": {
        "coding": [ {
          "system": "http://snomed.info/sct",
          "code": "81839001"
        }, {
          "system": "http://fhir.de/CodeSystem/dimdi/atc",
          "code": "B01AE"
        }, {
          "system": "http://fhir.de/CodeSystem/dimdi/atc",
          "code": "B01AF"
        } ]
      },
      "subject": {
        "reference": "Patient/fa1fbf193f4c51fc106add59e9203c1f955a4621982a5a6d7c5f9f4f6de898b4"
      },
      "effectiveDateTime": "2020-09-27T12:45:00+00:00",
      "reasonCode": [ {
        "coding": [ {
          "system": "http://snomed.info/sct",
          "code": "373808002",
          "display": "Curative - procedure intent (qualifier value)"
        } ]
      } ]
    },
    "request": {
      "method": "POST",
      "url": "MedicationStatement",
      "ifNoneExist": "identifier=https://mein.krankenhaus.de/fhir/NamingSystem/medicationstatementId|951e5e4b0ea34f5b14172a07640703b33771b0498c00ef93b218af0ce89e53c7"
    }
  }, {
    "fullUrl": "MedicationStatement/9fbfc1ba4472b4fe9e62dcb66d73ff31364f2ad300baaf65dcc3c40b94c2cf49",
    "resource": {
      "resourceType": "MedicationStatement",
      "meta": {
        "profile": [ "https://www.netzwerk-universitaetsmedizin.de/fhir/StructureDefinition/pharmacological-therapy-anticoagulants" ]
      },
      "identifier": [ {
        "system": "https://mein.krankenhaus.de/fhir/NamingSystem/medicationstatementId",
        "value": "3460b66b3af7d2733d96097ab026df355dc947875a329045009214ee2c453352"
      } ],
      "status": "not-taken",
      "medicationCodeableConcept": {
        "coding": [ {
          "system": "http://snomed.info/sct",
          "code": "81839001"
        } ]
      },
      "subject": {
        "reference": "Patient/fa1fbf193f4c51fc106add59e9203c1f955a4621982a5a6d7c5f9f4f6de898b4"
      },
      "effectiveDateTime": "2020-09-27T12:45:00+00:00",
      "reasonCode": [ {
        "coding": [ {
          "system": "http://snomed.info/sct",
          "code": "373808002",
          "display": "Curative - procedure intent (qualifier value)"
        } ]
      } ]
    },
    "request": {
      "method": "POST",
      "url": "MedicationStatement",
      "ifNoneExist": "identifier=https://mein.krankenhaus.de/fhir/NamingSystem/medicationstatementId|9fbfc1ba4472b4fe9e62dcb66d73ff31364f2ad300baaf65dcc3c40b94c2cf49"
    }
  }, {
    "fullUrl": "MedicationStatement/3c795975714917a865d04dd849768f16f54e86ca0e057793a26676680aed9c17",
    "resource": {
      "resourceType": "MedicationStatement",
      "meta": {
        "profile": [ "https://www.netzwerk-universitaetsmedizin.de/fhir/StructureDefinition/pharmacological-therapy" ]
      },
      "identifier": [ {
        "system": "https://mein.krankenhaus.de/fhir/NamingSystem/medicationstatementId",
        "value": "6d3cefdff79176b7a56ec2477562673e8a1061c0798e47e2411d0fbe5c196327"
      } ],
      "status": "not-taken",
      "medicationCodeableConcept": {
        "coding": [ {
          "system": "http://snomed.info/sct",
          "code": "41549009"
        } ],
        "text": "ACE inhibitors"
      },
      "subject": {
        "reference": "Patient/fa1fbf193f4c51fc106add59e9203c1f955a4621982a5a6d7c5f9f4f6de898b4"
      },
      "effectiveDateTime": "2020-06-16T13:20:00+00:00"
    },
    "request": {
      "method": "POST",
      "url": "MedicationStatement",
      "ifNoneExist": "identifier=https://mein.krankenhaus.de/fhir/NamingSystem/medicationstatementId|3c795975714917a865d04dd849768f16f54e86ca0e057793a26676680aed9c17"
    }
  }, {
    "fullUrl": "MedicationStatement/19b5ecdedb0a4d42453b3b610bcaa1c77d4b8abfd14bf1a0e96f013ec11aeb0d",
    "resource": {
      "resourceType": "MedicationStatement",
      "meta": {
        "profile": [ "https://www.netzwerk-universitaetsmedizin.de/fhir/StructureDefinition/pharmacological-therapy" ]
      },
      "identifier": [ {
        "system": "https://mein.krankenhaus.de/fhir/NamingSystem/medicationstatementId",
        "value": "aed8acede16aa716f28023258ff317ed5d4da318e349297bd1df26495cf75f13"
      } ],
      "status": "not-taken",
      "medicationCodeableConcept": {
        "coding": [ {
          "system": "http://snomed.info/sct",
          "code": "333710000"
        } ],
        "text": "immunoglobulins"
      },
      "subject": {
        "reference": "Patient/fa1fbf193f4c51fc106add59e9203c1f955a4621982a5a6d7c5f9f4f6de898b4"
      },
      "effectiveDateTime": "2020-06-16T13:20:00+00:00"
    },
    "request": {
      "method": "POST",
      "url": "MedicationStatement",
      "ifNoneExist": "identifier=https://mein.krankenhaus.de/fhir/NamingSystem/medicationstatementId|19b5ecdedb0a4d42453b3b610bcaa1c77d4b8abfd14bf1a0e96f013ec11aeb0d"
    }
  }, {
    "fullUrl": "Observation/ab60e2d9f0a31acf85250c8d6d49ce0c6cb878045a6797b2258f745856b8ebba",
    "resource": {
      "resourceType": "Observation",
      "meta": {
        "profile": [ "https://www.netzwerk-universitaetsmedizin.de/fhir/StructureDefinition/study-inclusion-covid-19" ]
      },
      "identifier": [ {
        "type": {
          "coding": [ {
            "system": "http://terminology.hl7.org/CodeSystem/v2-0203",
            "code": "OBI",
            "display": "Observation Instance Identifier"
          } ]
        },
        "system": "https://mein.krankenhaus.de/fhir/NamingSystem/observationId",
        "value": "9b2cfef3d052b296b30951919acd1effdc36426a654d4a920b82e3bfb066ff27",
        "assigner": {
          "reference": "Organization/3a4f3433bce81181bad2d8e0b8fafccf7dc800bc06f29be73dcb38b750a48f9a"
        }
      } ],
      "status": "final",
      "category": [ {
        "coding": [ {
          "system": "http://terminology.hl7.org/CodeSystem/observation-category",
          "code": "survey",
          "display": "Survey"
        } ]
      } ],
      "code": {
        "coding": [ {
          "system": "https://www.netzwerk-universitaetsmedizin.de/fhir/CodeSystem/ecrf-parameter-codes",
          "code": "02",
          "display": "Study inclusion due to Covid-19"
        } ],
        "text": "Confirmed Covid-19 diagnosis as main reason for enrolment in the study"
      },
      "subject": {
        "reference": "Patient/fa1fbf193f4c51fc106add59e9203c1f955a4621982a5a6d7c5f9f4f6de898b4"
      },
      "_effectiveDateTime": {
        "extension": [ {
          "url": "http://hl7.org/fhir/StructureDefinition/data-absent-reason",
          "valueCode": "unknown"
        } ]
      },
      "valueCodeableConcept": {
        "coding": [ {
          "system": "http://snomed.info/sct",
          "code": "373067005"
        } ]
      }
    },
    "request": {
      "method": "POST",
      "url": "Observation",
      "ifNoneExist": "identifier=https://mein.krankenhaus.de/fhir/NamingSystem/observationId|ab60e2d9f0a31acf85250c8d6d49ce0c6cb878045a6797b2258f745856b8ebba"
    }
  }, {
    "fullUrl": "Observation/0d1ae043d8addba28c72b80ca8f8a034882a6ecf4ece80a1d56317055d126967",
    "resource": {
      "resourceType": "Observation",
      "meta": {
        "profile": [ "https://www.netzwerk-universitaetsmedizin.de/fhir/StructureDefinition/interventional-clinical-trial-participation" ]
      },
      "identifier": [ {
        "type": {
          "coding": [ {
            "system": "http://terminology.hl7.org/CodeSystem/v2-0203",
            "code": "OBI",
            "display": "Observation Instance Identifier"
          } ]
        },
        "system": "https://mein.krankenhaus.de/fhir/NamingSystem/observationId",
        "value": "ce6d13966796f921f7974c84b2b5b3369185c9b180825930300413b3c28ac825",
        "assigner": {
          "reference": "Organization/3a4f3433bce81181bad2d8e0b8fafccf7dc800bc06f29be73dcb38b750a48f9a"
        }
      } ],
      "status": "final",
      "category": [ {
        "coding": [ {
          "system": "http://terminology.hl7.org/CodeSystem/observation-category",
          "code": "survey",
          "display": "Survey"
        } ]
      } ],
      "code": {
        "coding": [ {
          "system": "https://www.netzwerk-universitaetsmedizin.de/fhir/CodeSystem/ecrf-parameter-codes",
          "code": "03",
          "display": "Participation in interventional clinical trials"
        } ],
        "text": "Has the patient participated in one or more interventional clinical trials?"
      },
      "subject": {
        "reference": "Patient/fa1fbf193f4c51fc106add59e9203c1f955a4621982a5a6d7c5f9f4f6de898b4"
      },
      "_effectiveDateTime": {
        "extension": [ {
          "url": "http://hl7.org/fhir/StructureDefinition/data-absent-reason",
          "valueCode": "unknown"
        } ]
      },
      "valueCodeableConcept": {
        "coding": [ {
          "system": "http://snomed.info/sct",
          "code": "261665006"
        } ]
      }
    },
    "request": {
      "method": "POST",
      "url": "Observation",
      "ifNoneExist": "identifier=https://mein.krankenhaus.de/fhir/NamingSystem/observationId|0d1ae043d8addba28c72b80ca8f8a034882a6ecf4ece80a1d56317055d126967"
    }
  } ]
}