{
  "resourceType": "Bundle",
  "meta": {
    "profile": [ "https://www.netzwerk-universitaetsmedizin.de/fhir/StructureDefinition/gecco-bundle" ]
  },
  "type": "transaction",
  "entry": [ {
    "fullUrl": "Patient/92933a3678d1b6e8b1c7f67c4018a24f010d30e88b78083b7267ceaff46e5972",
    "resource": {
      "resourceType": "Patient",
      "meta": {
        "profile": [ "https://www.netzwerk-universitaetsmedizin.de/fhir/StructureDefinition/Patient" ]
      },
      "extension": [ {
        "url": "https://www.netzwerk-universitaetsmedizin.de/fhir/StructureDefinition/age",
        "extension": [ {
          "url": "dateTimeOfDocumentation",
          "_valueDateTime": {
            "extension": [ {
              "url": "http://hl7.org/fhir/StructureDefinition/data-absent-reason",
              "valueCode": "unknown"
            } ]
          }
        }, {
          "url": "age",
          "valueAge": {
            "value": 91,
            "unit": "years",
            "system": "http://unitsofmeasure.org",
            "code": "a"
          }
        } ]
      }, {
        "url": "https://www.netzwerk-universitaetsmedizin.de/fhir/StructureDefinition/ethnic-group",
        "valueCoding": {
          "system": "urn:oid:2.16.840.1.113883.6.238",
          "code": "2135-2"
        }
      } ],
      "identifier": [ {
        "type": {
          "coding": [ {
            "system": "http://terminology.hl7.org/CodeSystem/v2-0203",
            "code": "MR"
          } ]
        },
        "system": "https://mein.krankenhaus.de/fhir/NamingSystem/patientId",
        "value": "synthetic_patient_758903380",
        "assigner": {
          "reference": "Organization/3a4f3433bce81181bad2d8e0b8fafccf7dc800bc06f29be73dcb38b750a48f9a"
        }
      } ],
      "birthDate": "1928-12-07"
    },
    "request": {
      "method": "POST",
      "url": "Patient",
      "ifNoneExist": "identifier=https://mein.krankenhaus.de/fhir/NamingSystem/patientId|92933a3678d1b6e8b1c7f67c4018a24f010d30e88b78083b7267ceaff46e5972"
    }
  }, {
    "fullUrl": "Organization/3a4f3433bce81181bad2d8e0b8fafccf7dc800bc06f29be73dcb38b750a48f9a",
    "resource": {
      "resourceType": "Organization",
      "name": "Mein Krankenhaus"
    },
    "request": {
      "method": "POST",
      "url": "Organization",
      "ifNoneExist": "identifier=null|3a4f3433bce81181bad2d8e0b8fafccf7dc800bc06f29be73dcb38b750a48f9a"
    }
  }, {
    "fullUrl": "Encounter/932798f2bd43b79c3c7f0cf2ddc4321aab4c0471b2bc62bb49937d2c132a6354",
    "resource": {
      "resourceType": "Encounter",
      "identifier": [ {
        "system": "https://mein.krankenhaus.de/fhir/NamingSystem/encounterId",
        "value": "b171d7b918e31e9bb3553137c23663b45bbd04ca1a2b5a6a518005db04bbcc39",
        "assigner": {
          "reference": "Organization/3a4f3433bce81181bad2d8e0b8fafccf7dc800bc06f29be73dcb38b750a48f9a"
        }
      } ],
      "status": "unknown",
      "class": {
        "system": "http://terminology.hl7.org/CodeSystem/v3-ActCode",
        "code": "IMP",
        "display": "inpatient encounter"
      },
      "subject": {
        "reference": "Patient/92933a3678d1b6e8b1c7f67c4018a24f010d30e88b78083b7267ceaff46e5972"
      }
    },
    "request": {
      "method": "POST",
      "url": "Encounter",
      "ifNoneExist": "identifier=https://mein.krankenhaus.de/fhir/NamingSystem/encounterId|932798f2bd43b79c3c7f0cf2ddc4321aab4c0471b2bc62bb49937d2c132a6354"
    }
  }, {
    "fullUrl": "Condition/61b0d99f56acdcd90227ea59115b150a98ce0cd424ebe410441cd268138367ed",
    "resource": {
      "resourceType": "Condition",
      "meta": {
        "profile": [ "https://www.netzwerk-universitaetsmedizin.de/fhir/StructureDefinition/diagnosis-covid-19" ]
      },
      "identifier": [ {
        "system": "https://mein.krankenhaus.de/fhir/NamingSystem/conditionId",
        "value": "25ae60633fc52d8a184545217d3b30482ce7b549da314f2dc7e69203a0edf932"
      } ],
      "clinicalStatus": {
        "coding": [ {
          "system": "http://terminology.hl7.org/CodeSystem/condition-clinical",
          "code": "active",
          "display": "Active"
        } ]
      },
      "verificationStatus": {
        "coding": [ {
          "system": "http://terminology.hl7.org/CodeSystem/condition-ver-status",
          "code": "confirmed",
          "display": "Confirmed"
        }, {
          "system": "http://snomed.info/sct",
          "code": "410605003",
          "display": "Confirmed present (qualifier value)"
        } ]
      },
      "category": [ {
        "coding": [ {
          "system": "http://snomed.info/sct",
          "code": "394807007",
          "display": "Infectious diseases (specialty) (qualifier value)"
        } ]
      } ],
      "code": {
        "coding": [ {
          "system": "http://snomed.info/sct",
          "code": "840539006",
          "display": "Disease caused by Severe acute respiratory syndrome coronavirus 2 (disorder)"
        } ]
      },
      "subject": {
        "reference": "Patient/92933a3678d1b6e8b1c7f67c4018a24f010d30e88b78083b7267ceaff46e5972"
      },
      "encounter": {
        "reference": "Encounter/932798f2bd43b79c3c7f0cf2ddc4321aab4c0471b2bc62bb49937d2c132a6354"
      },
      "_recordedDate": {
        "extension": [ {
          "url": "http://hl7.org/fhir/StructureDefinition/data-absent-reason",
          "valueCode": "unknown"
        } ]
      },
      "stage": [ {
        "summary": {
          "coding": [ {
            "system": "http://snomed.info/sct",
            "code": "261665006"
          } ]
        },
        "type": {
          "coding": [ {
            "system": "http://loinc.org",
            "code": "88859-4"
          } ]
        }
      } ]
    },
    "request": {
      "method": "POST",
      "url": "Condition",
      "ifNoneExist": "identifier=https://mein.krankenhaus.de/fhir/NamingSystem/conditionId|61b0d99f56acdcd90227ea59115b150a98ce0cd424ebe410441cd268138367ed"
    }
  }, {
    "fullUrl": "Condition/dbf2138846e94c6880ed2ea37a3538f8bc4a3d227bf379f2a46dfcb468318d7f",
    "resource": {
      "resourceType": "Condition",
      "meta": {
        "profile": [ "https://www.netzwerk-universitaetsmedizin.de/fhir/StructureDefinition/human-immunodeficiency-virus-infection" ]
      },
      "identifier": [ {
        "system": "https://mein.krankenhaus.de/fhir/NamingSystem/conditionId",
        "value": "824f9315a40df0e00ebd9c3e7edf02413e32544b823c55d95f003caaa2bdb64b"
      } ],
      "verificationStatus": {
        "coding": [ {
          "system": "http://terminology.hl7.org/CodeSystem/condition-ver-status",
          "code": "refuted",
          "display": "Refuted"
        }, {
          "system": "http://snomed.info/sct",
          "code": "410594000",
          "display": "Definitely NOT present (qualifier value)"
        } ]
      },
      "category": [ {
        "coding": [ {
          "system": "http://snomed.info/sct",
          "code": "394807007",
          "display": "Infectious diseases (specialty) (qualifier value)"
        } ]
      } ],
      "code": {
        "coding": [ {
          "system": "http://fhir.de/CodeSystem/dimdi/icd-10-gm",
          "version": "2021",
          "code": "B24"
        }, {
          "system": "http://snomed.info/sct",
          "code": "86406008"
        } ]
      },
      "subject": {
        "reference": "Patient/92933a3678d1b6e8b1c7f67c4018a24f010d30e88b78083b7267ceaff46e5972"
      },
      "encounter": {
        "reference": "Encounter/932798f2bd43b79c3c7f0cf2ddc4321aab4c0471b2bc62bb49937d2c132a6354"
      },
      "_recordedDate": {
        "extension": [ {
          "url": "http://hl7.org/fhir/StructureDefinition/data-absent-reason",
          "valueCode": "unknown"
        } ]
      }
    },
    "request": {
      "method": "POST",
      "url": "Condition",
      "ifNoneExist": "identifier=https://mein.krankenhaus.de/fhir/NamingSystem/conditionId|dbf2138846e94c6880ed2ea37a3538f8bc4a3d227bf379f2a46dfcb468318d7f"
    }
  }, {
    "fullUrl": "Condition/09c2c61384b6fe7df252606561c96901d23483bc26cca9fe9fbf7ec3962fedb1",
    "resource": {
      "resourceType": "Condition",
      "meta": {
        "profile": [ "https://www.netzwerk-universitaetsmedizin.de/fhir/StructureDefinition/organ-recipient" ]
      },
      "identifier": [ {
        "system": "https://mein.krankenhaus.de/fhir/NamingSystem/conditionId",
        "value": "aade8cab16d4660ed1ef131a166830016c4f533e6baaf50ffe40af0fe467942e"
      } ],
      "clinicalStatus": {
        "coding": [ {
          "system": "http://terminology.hl7.org/CodeSystem/condition-clinical",
          "code": "active",
          "display": "Active"
        } ]
      },
      "verificationStatus": {
        "coding": [ {
          "system": "http://terminology.hl7.org/CodeSystem/condition-ver-status",
          "code": "confirmed",
          "display": "Confirmed"
        }, {
          "system": "http://snomed.info/sct",
          "code": "410605003",
          "display": "Confirmed present (qualifier value)"
        } ]
      },
      "category": [ {
        "coding": [ {
          "system": "http://snomed.info/sct",
          "code": "788415003",
          "display": "Transplant medicine (qualifier value)"
        } ]
      } ],
      "code": {
        "coding": [ {
          "system": "http://fhir.de/CodeSystem/dimdi/icd-10-gm",
          "version": "2021",
          "code": "Z94.1"
        } ]
      },
      "bodySite": [ {
        "coding": [ {
          "system": "http://snomed.info/sct",
          "code": "302509004"
        } ]
      } ],
      "subject": {
        "reference": "Patient/92933a3678d1b6e8b1c7f67c4018a24f010d30e88b78083b7267ceaff46e5972"
      },
      "encounter": {
        "reference": "Encounter/932798f2bd43b79c3c7f0cf2ddc4321aab4c0471b2bc62bb49937d2c132a6354"
      },
      "_recordedDate": {
        "extension": [ {
          "url": "http://hl7.org/fhir/StructureDefinition/data-absent-reason",
          "valueCode": "unknown"
        } ]
      }
    },
    "request": {
      "method": "POST",
      "url": "Condition",
      "ifNoneExist": "identifier=https://mein.krankenhaus.de/fhir/NamingSystem/conditionId|09c2c61384b6fe7df252606561c96901d23483bc26cca9fe9fbf7ec3962fedb1"
    }
  }, {
    "fullUrl": "Condition/ef49703d75cfb2f54ae034b6a233dd9c0a631288745673db745749df4b216edf",
    "resource": {
      "resourceType": "Condition",
      "meta": {
        "profile": [ "https://www.netzwerk-universitaetsmedizin.de/fhir/StructureDefinition/organ-recipient" ]
      },
      "identifier": [ {
        "system": "https://mein.krankenhaus.de/fhir/NamingSystem/conditionId",
        "value": "2e163c3cb149a2213b88243c6fc5cf52cf875f8baa05a9a2bb36320ca732792b"
      } ],
      "clinicalStatus": {
        "coding": [ {
          "system": "http://terminology.hl7.org/CodeSystem/condition-clinical",
          "code": "active",
          "display": "Active"
        } ]
      },
      "verificationStatus": {
        "coding": [ {
          "system": "http://terminology.hl7.org/CodeSystem/condition-ver-status",
          "code": "confirmed",
          "display": "Confirmed"
        }, {
          "system": "http://snomed.info/sct",
          "code": "410605003",
          "display": "Confirmed present (qualifier value)"
        } ]
      },
      "category": [ {
        "coding": [ {
          "system": "http://snomed.info/sct",
          "code": "788415003",
          "display": "Transplant medicine (qualifier value)"
        } ]
      } ],
      "code": {
        "coding": [ {
          "system": "http://fhir.de/CodeSystem/dimdi/icd-10-gm",
          "version": "2021",
          "code": "Z94.4"
        } ]
      },
      "bodySite": [ {
        "coding": [ {
          "system": "http://snomed.info/sct",
          "code": "181268008"
        } ]
      } ],
      "subject": {
        "reference": "Patient/92933a3678d1b6e8b1c7f67c4018a24f010d30e88b78083b7267ceaff46e5972"
      },
      "encounter": {
        "reference": "Encounter/932798f2bd43b79c3c7f0cf2ddc4321aab4c0471b2bc62bb49937d2c132a6354"
      },
      "_recordedDate": {
        "extension": [ {
          "url": "http://hl7.org/fhir/StructureDefinition/data-absent-reason",
          "valueCode": "unknown"
        } ]
      }
    },
    "request": {
      "method": "POST",
      "url": "Condition",
      "ifNoneExist": "identifier=https://mein.krankenhaus.de/fhir/NamingSystem/conditionId|ef49703d75cfb2f54ae034b6a233dd9c0a631288745673db745749df4b216edf"
    }
  }, {
    "fullUrl": "Condition/eb601879c3cbc2856ba8187563f523690e7e6f7f90e48b89d35cb835a917ee9d",
    "resource": {
      "resourceType": "Condition",
      "meta": {
        "profile": [ "https://www.netzwerk-universitaetsmedizin.de/fhir/StructureDefinition/organ-recipient" ]
      },
      "modifierExtension": [ {
        "url": "https://www.netzwerk-universitaetsmedizin.de/fhir/StructureDefinition/uncertainty-of-presence",
        "valueCodeableConcept": {
          "coding": [ {
            "system": "http://snomed.info/sct",
            "code": "261665006",
            "display": "Unknown (qualifier value)"
          } ],
          "text": "Presence unknown."
        }
      } ],
      "identifier": [ {
        "system": "https://mein.krankenhaus.de/fhir/NamingSystem/conditionId",
        "value": "4c173f1bdc24bbce8ff01bcb71df6cb34a2d6a5552220c24c010ed0cd4748826"
      } ],
      "category": [ {
        "coding": [ {
          "system": "http://snomed.info/sct",
          "code": "788415003",
          "display": "Transplant medicine (qualifier value)"
        } ]
      } ],
      "code": {
        "coding": [ {
          "system": "http://fhir.de/CodeSystem/dimdi/icd-10-gm",
          "version": "2021",
          "code": "Z94.0"
        } ]
      },
      "bodySite": [ {
        "coding": [ {
          "system": "http://snomed.info/sct",
          "code": "181414000"
        } ]
      } ],
      "subject": {
        "reference": "Patient/92933a3678d1b6e8b1c7f67c4018a24f010d30e88b78083b7267ceaff46e5972"
      },
      "encounter": {
        "reference": "Encounter/932798f2bd43b79c3c7f0cf2ddc4321aab4c0471b2bc62bb49937d2c132a6354"
      },
      "_recordedDate": {
        "extension": [ {
          "url": "http://hl7.org/fhir/StructureDefinition/data-absent-reason",
          "valueCode": "unknown"
        } ]
      }
    },
    "request": {
      "method": "POST",
      "url": "Condition",
      "ifNoneExist": "identifier=https://mein.krankenhaus.de/fhir/NamingSystem/conditionId|eb601879c3cbc2856ba8187563f523690e7e6f7f90e48b89d35cb835a917ee9d"
    }
  }, {
    "fullUrl": "Condition/cf595e2a5d3543f40b39fe6b4bc40c0a0aeb1bf8e3af7cccdee1ad8111853111",
    "resource": {
      "resourceType": "Condition",
      "meta": {
        "profile": [ "https://www.netzwerk-universitaetsmedizin.de/fhir/StructureDefinition/organ-recipient" ]
      },
      "identifier": [ {
        "system": "https://mein.krankenhaus.de/fhir/NamingSystem/conditionId",
        "value": "c3fb8effd2183eff414f8b1e46d453e6b71307858680904f7a976a45c37b7958"
      } ],
      "verificationStatus": {
        "coding": [ {
          "system": "http://terminology.hl7.org/CodeSystem/condition-ver-status",
          "code": "refuted",
          "display": "Refuted"
        }, {
          "system": "http://snomed.info/sct",
          "code": "410594000",
          "display": "Definitely NOT present (qualifier value)"
        } ]
      },
      "category": [ {
        "coding": [ {
          "system": "http://snomed.info/sct",
          "code": "788415003",
          "display": "Transplant medicine (qualifier value)"
        } ]
      } ],
      "code": {
        "coding": [ {
          "system": "http://fhir.de/CodeSystem/dimdi/icd-10-gm",
          "version": "2021",
          "code": "Z94.88"
        } ]
      },
      "bodySite": [ {
        "coding": [ {
          "system": "http://snomed.info/sct",
          "code": "113276009"
        } ]
      } ],
      "subject": {
        "reference": "Patient/92933a3678d1b6e8b1c7f67c4018a24f010d30e88b78083b7267ceaff46e5972"
      },
      "encounter": {
        "reference": "Encounter/932798f2bd43b79c3c7f0cf2ddc4321aab4c0471b2bc62bb49937d2c132a6354"
      },
      "_recordedDate": {
        "extension": [ {
          "url": "http://hl7.org/fhir/StructureDefinition/data-absent-reason",
          "valueCode": "unknown"
        } ]
      }
    },
    "request": {
      "method": "POST",
      "url": "Condition",
      "ifNoneExist": "identifier=https://mein.krankenhaus.de/fhir/NamingSystem/conditionId|cf595e2a5d3543f40b39fe6b4bc40c0a0aeb1bf8e3af7cccdee1ad8111853111"
    }
  }, {
    "fullUrl": "Condition/3f48ebfec46afc553cc2d36d67f1e34233ff2c54964a11a46a15e2a0cc650a2f",
    "resource": {
      "resourceType": "Condition",
      "meta": {
        "profile": [ "https://www.netzwerk-universitaetsmedizin.de/fhir/StructureDefinition/organ-recipient" ]
      },
      "modifierExtension": [ {
        "url": "https://www.netzwerk-universitaetsmedizin.de/fhir/StructureDefinition/uncertainty-of-presence",
        "valueCodeableConcept": {
          "coding": [ {
            "system": "http://snomed.info/sct",
            "code": "261665006",
            "display": "Unknown (qualifier value)"
          } ],
          "text": "Presence unknown."
        }
      } ],
      "identifier": [ {
        "system": "https://mein.krankenhaus.de/fhir/NamingSystem/conditionId",
        "value": "a8ba684c3f45d41730f3b3f0b6236271482e730bf3162124ee6ac9021d110fd9"
      } ],
      "category": [ {
        "coding": [ {
          "system": "http://snomed.info/sct",
          "code": "788415003",
          "display": "Transplant medicine (qualifier value)"
        } ]
      } ],
      "code": {
        "coding": [ {
          "system": "http://fhir.de/CodeSystem/dimdi/icd-10-gm",
          "version": "2021",
          "code": "Z94.5"
        } ]
      },
      "bodySite": [ {
        "coding": [ {
          "system": "http://snomed.info/sct",
          "code": "119181002"
        } ]
      } ],
      "subject": {
        "reference": "Patient/92933a3678d1b6e8b1c7f67c4018a24f010d30e88b78083b7267ceaff46e5972"
      },
      "encounter": {
        "reference": "Encounter/932798f2bd43b79c3c7f0cf2ddc4321aab4c0471b2bc62bb49937d2c132a6354"
      },
      "_recordedDate": {
        "extension": [ {
          "url": "http://hl7.org/fhir/StructureDefinition/data-absent-reason",
          "valueCode": "unknown"
        } ]
      }
    },
    "request": {
      "method": "POST",
      "url": "Condition",
      "ifNoneExist": "identifier=https://mein.krankenhaus.de/fhir/NamingSystem/conditionId|3f48ebfec46afc553cc2d36d67f1e34233ff2c54964a11a46a15e2a0cc650a2f"
    }
  }, {
    "fullUrl": "Condition/3e37854c88612fe5dc994177d6c32f8a527328c2fa191d160b09b382c1afd146",
    "resource": {
      "resourceType": "Condition",
      "meta": {
        "profile": [ "https://www.netzwerk-universitaetsmedizin.de/fhir/StructureDefinition/organ-recipient" ]
      },
      "modifierExtension": [ {
        "url": "https://www.netzwerk-universitaetsmedizin.de/fhir/StructureDefinition/uncertainty-of-presence",
        "valueCodeableConcept": {
          "coding": [ {
            "system": "http://snomed.info/sct",
            "code": "261665006",
            "display": "Unknown (qualifier value)"
          } ],
          "text": "Presence unknown."
        }
      } ],
      "identifier": [ {
        "system": "https://mein.krankenhaus.de/fhir/NamingSystem/conditionId",
        "value": "6283786834b6775ac077013fedfa1566dbb87d7e5b87f2764fff5ff114330895"
      } ],
      "category": [ {
        "coding": [ {
          "system": "http://snomed.info/sct",
          "code": "788415003",
          "display": "Transplant medicine (qualifier value)"
        } ]
      } ],
      "code": {
        "coding": [ {
          "system": "http://fhir.de/CodeSystem/dimdi/icd-10-gm",
          "version": "2021",
          "code": "Z94.7"
        } ]
      },
      "bodySite": [ {
        "coding": [ {
          "system": "http://snomed.info/sct",
          "code": "181162001"
        } ]
      } ],
      "subject": {
        "reference": "Patient/92933a3678d1b6e8b1c7f67c4018a24f010d30e88b78083b7267ceaff46e5972"
      },
      "encounter": {
        "reference": "Encounter/932798f2bd43b79c3c7f0cf2ddc4321aab4c0471b2bc62bb49937d2c132a6354"
      },
      "_recordedDate": {
        "extension": [ {
          "url": "http://hl7.org/fhir/StructureDefinition/data-absent-reason",
          "valueCode": "unknown"
        } ]
      }
    },
    "request": {
      "method": "POST",
      "url": "Condition",
      "ifNoneExist": "identifier=https://mein.krankenhaus.de/fhir/NamingSystem/conditionId|3e37854c88612fe5dc994177d6c32f8a527328c2fa191d160b09b382c1afd146"
    }
  }, {
    "fullUrl": "Condition/ca1a5ed64e400ae928b669c7761ad143bc18201c3b57ef8dc9dab2bee7368ec9",
    "resource": {
      "resourceType": "Condition",
      "meta": {
        "profile": [ "https://www.netzwerk-universitaetsmedizin.de/fhir/StructureDefinition/organ-recipient" ]
      },
      "modifierExtension": [ {
        "url": "https://www.netzwerk-universitaetsmedizin.de/fhir/StructureDefinition/uncertainty-of-presence",
        "valueCodeableConcept": {
          "coding": [ {
            "system": "http://snomed.info/sct",
            "code": "261665006",
            "display": "Unknown (qualifier value)"
          } ],
          "text": "Presence unknown."
        }
      } ],
      "identifier": [ {
        "system": "https://mein.krankenhaus.de/fhir/NamingSystem/conditionId",
        "value": "776339018e06e75699ff0107c413bf7a8365c3b98f92e83392015da3ad9d7a09"
      } ],
      "category": [ {
        "coding": [ {
          "system": "http://snomed.info/sct",
          "code": "788415003",
          "display": "Transplant medicine (qualifier value)"
        } ]
      } ],
      "code": {
        "coding": [ {
          "system": "http://fhir.de/CodeSystem/dimdi/icd-10-gm",
          "version": "2021",
          "code": "Z94.9"
        } ]
      },
      "bodySite": [ {
        "coding": [ {
          "system": "http://snomed.info/sct",
          "code": "41845008"
        } ]
      } ],
      "subject": {
        "reference": "Patient/92933a3678d1b6e8b1c7f67c4018a24f010d30e88b78083b7267ceaff46e5972"
      },
      "encounter": {
        "reference": "Encounter/932798f2bd43b79c3c7f0cf2ddc4321aab4c0471b2bc62bb49937d2c132a6354"
      },
      "_recordedDate": {
        "extension": [ {
          "url": "http://hl7.org/fhir/StructureDefinition/data-absent-reason",
          "valueCode": "unknown"
        } ]
      }
    },
    "request": {
      "method": "POST",
      "url": "Condition",
      "ifNoneExist": "identifier=https://mein.krankenhaus.de/fhir/NamingSystem/conditionId|ca1a5ed64e400ae928b669c7761ad143bc18201c3b57ef8dc9dab2bee7368ec9"
    }
  }, {
    "fullUrl": "Condition/d7ec3b5fbddf4a5f68f6c17607dd11201f57e53c495a860902edca51e6bfba6c",
    "resource": {
      "resourceType": "Condition",
      "meta": {
        "profile": [ "https://www.netzwerk-universitaetsmedizin.de/fhir/StructureDefinition/organ-recipient" ]
      },
      "identifier": [ {
        "system": "https://mein.krankenhaus.de/fhir/NamingSystem/conditionId",
        "value": "e53b4c5b404f67c3ac1d11ecd95807f7418396efc9a7d2584e3db6f96e261489"
      } ],
      "verificationStatus": {
        "coding": [ {
          "system": "http://terminology.hl7.org/CodeSystem/condition-ver-status",
          "code": "refuted",
          "display": "Refuted"
        }, {
          "system": "http://snomed.info/sct",
          "code": "410594000",
          "display": "Definitely NOT present (qualifier value)"
        } ]
      },
      "category": [ {
        "coding": [ {
          "system": "http://snomed.info/sct",
          "code": "788415003",
          "display": "Transplant medicine (qualifier value)"
        } ]
      } ],
      "code": {
        "coding": [ {
          "system": "http://fhir.de/CodeSystem/dimdi/icd-10-gm",
          "version": "2021",
          "code": "Z95.88"
        } ]
      },
      "bodySite": [ {
        "coding": [ {
          "system": "http://snomed.info/sct",
          "code": "181285005"
        } ]
      } ],
      "subject": {
        "reference": "Patient/92933a3678d1b6e8b1c7f67c4018a24f010d30e88b78083b7267ceaff46e5972"
      },
      "encounter": {
        "reference": "Encounter/932798f2bd43b79c3c7f0cf2ddc4321aab4c0471b2bc62bb49937d2c132a6354"
      },
      "_recordedDate": {
        "extension": [ {
          "url": "http://hl7.org/fhir/StructureDefinition/data-absent-reason",
          "valueCode": "unknown"
        } ]
      }
    },
    "request": {
      "method": "POST",
      "url": "Condition",
      "ifNoneExist": "identifier=https://mein.krankenhaus.de/fhir/NamingSystem/conditionId|d7ec3b5fbddf4a5f68f6c17607dd11201f57e53c495a860902edca51e6bfba6c"
    }
  }, {
    "fullUrl": "Condition/0b45fce3544c2eed9f52f8df7867beeb24be9d75c60e14abdfb35b1d6179e479",
    "resource": {
      "resourceType": "Condition",
      "meta": {
        "profile": [ "https://www.netzwerk-universitaetsmedizin.de/fhir/StructureDefinition/organ-recipient" ]
      },
      "identifier": [ {
        "system": "https://mein.krankenhaus.de/fhir/NamingSystem/conditionId",
        "value": "dadf4f2383bb4fe24cf396df4b8471bdffeba84381aa3642b57bda1d6bcae97d"
      } ],
      "verificationStatus": {
        "coding": [ {
          "system": "http://terminology.hl7.org/CodeSystem/condition-ver-status",
          "code": "refuted",
          "display": "Refuted"
        }, {
          "system": "http://snomed.info/sct",
          "code": "410594000",
          "display": "Definitely NOT present (qualifier value)"
        } ]
      },
      "category": [ {
        "coding": [ {
          "system": "http://snomed.info/sct",
          "code": "788415003",
          "display": "Transplant medicine (qualifier value)"
        } ]
      } ],
      "code": {
        "coding": [ {
          "system": "http://fhir.de/CodeSystem/dimdi/icd-10-gm",
          "version": "2021",
          "code": "Z95.5"
        } ]
      },
      "bodySite": [ {
        "coding": [ {
          "system": "http://snomed.info/sct",
          "code": "119206002"
        } ]
      } ],
      "subject": {
        "reference": "Patient/92933a3678d1b6e8b1c7f67c4018a24f010d30e88b78083b7267ceaff46e5972"
      },
      "encounter": {
        "reference": "Encounter/932798f2bd43b79c3c7f0cf2ddc4321aab4c0471b2bc62bb49937d2c132a6354"
      },
      "_recordedDate": {
        "extension": [ {
          "url": "http://hl7.org/fhir/StructureDefinition/data-absent-reason",
          "valueCode": "unknown"
        } ]
      }
    },
    "request": {
      "method": "POST",
      "url": "Condition",
      "ifNoneExist": "identifier=https://mein.krankenhaus.de/fhir/NamingSystem/conditionId|0b45fce3544c2eed9f52f8df7867beeb24be9d75c60e14abdfb35b1d6179e479"
    }
  }, {
    "fullUrl": "Condition/63f232082f82d92698c7323c1f9c81ad3fb34861a91470cbc11a85eb163c2252",
    "resource": {
      "resourceType": "Condition",
      "meta": {
        "profile": [ "https://www.netzwerk-universitaetsmedizin.de/fhir/StructureDefinition/organ-recipient" ]
      },
      "identifier": [ {
        "system": "https://mein.krankenhaus.de/fhir/NamingSystem/conditionId",
        "value": "b375dee535d8e5b662bf477cd903efaf5b5f02994c947ccf7feb2a8bd4204002"
      } ],
      "verificationStatus": {
        "coding": [ {
          "system": "http://terminology.hl7.org/CodeSystem/condition-ver-status",
          "code": "refuted",
          "display": "Refuted"
        }, {
          "system": "http://snomed.info/sct",
          "code": "410594000",
          "display": "Definitely NOT present (qualifier value)"
        } ]
      },
      "category": [ {
        "coding": [ {
          "system": "http://snomed.info/sct",
          "code": "788415003",
          "display": "Transplant medicine (qualifier value)"
        } ]
      } ],
      "code": {
        "coding": [ {
          "system": "http://fhir.de/CodeSystem/dimdi/icd-10-gm",
          "version": "2021",
          "code": "Z94.9"
        } ]
      },
      "bodySite": [ {
        "coding": [ {
          "system": "http://snomed.info/sct",
          "code": "8935007"
        } ]
      } ],
      "subject": {
        "reference": "Patient/92933a3678d1b6e8b1c7f67c4018a24f010d30e88b78083b7267ceaff46e5972"
      },
      "encounter": {
        "reference": "Encounter/932798f2bd43b79c3c7f0cf2ddc4321aab4c0471b2bc62bb49937d2c132a6354"
      },
      "_recordedDate": {
        "extension": [ {
          "url": "http://hl7.org/fhir/StructureDefinition/data-absent-reason",
          "valueCode": "unknown"
        } ]
      }
    },
    "request": {
      "method": "POST",
      "url": "Condition",
      "ifNoneExist": "identifier=https://mein.krankenhaus.de/fhir/NamingSystem/conditionId|63f232082f82d92698c7323c1f9c81ad3fb34861a91470cbc11a85eb163c2252"
    }
  }, {
    "fullUrl": "Condition/347dc4fe0d2920ac1a665625ca9866fc923e51c53bc71017c848d6fb09e7bb45",
    "resource": {
      "resourceType": "Condition",
      "meta": {
        "profile": [ "https://www.netzwerk-universitaetsmedizin.de/fhir/StructureDefinition/organ-recipient" ]
      },
      "identifier": [ {
        "system": "https://mein.krankenhaus.de/fhir/NamingSystem/conditionId",
        "value": "a0f23a27694cedfc221944856aec89fd8dbed594538146283ddaabcc1a16d821"
      } ],
      "verificationStatus": {
        "coding": [ {
          "system": "http://terminology.hl7.org/CodeSystem/condition-ver-status",
          "code": "refuted",
          "display": "Refuted"
        }, {
          "system": "http://snomed.info/sct",
          "code": "410594000",
          "display": "Definitely NOT present (qualifier value)"
        } ]
      },
      "category": [ {
        "coding": [ {
          "system": "http://snomed.info/sct",
          "code": "788415003",
          "display": "Transplant medicine (qualifier value)"
        } ]
      } ],
      "code": {
        "coding": [ {
          "system": "http://fhir.de/CodeSystem/dimdi/icd-10-gm",
          "version": "2021",
          "code": "Z94.6"
        } ]
      },
      "bodySite": [ {
        "coding": [ {
          "system": "http://snomed.info/sct",
          "code": "3138006"
        } ]
      } ],
      "subject": {
        "reference": "Patient/92933a3678d1b6e8b1c7f67c4018a24f010d30e88b78083b7267ceaff46e5972"
      },
      "encounter": {
        "reference": "Encounter/932798f2bd43b79c3c7f0cf2ddc4321aab4c0471b2bc62bb49937d2c132a6354"
      },
      "_recordedDate": {
        "extension": [ {
          "url": "http://hl7.org/fhir/StructureDefinition/data-absent-reason",
          "valueCode": "unknown"
        } ]
      }
    },
    "request": {
      "method": "POST",
      "url": "Condition",
      "ifNoneExist": "identifier=https://mein.krankenhaus.de/fhir/NamingSystem/conditionId|347dc4fe0d2920ac1a665625ca9866fc923e51c53bc71017c848d6fb09e7bb45"
    }
  }, {
    "fullUrl": "Condition/5850f44b9d5e6d0d192fff56f0434268ca32936c6ee6b7a835e2698d15a78cec",
    "resource": {
      "resourceType": "Condition",
      "meta": {
        "profile": [ "https://www.netzwerk-universitaetsmedizin.de/fhir/StructureDefinition/organ-recipient" ]
      },
      "identifier": [ {
        "system": "https://mein.krankenhaus.de/fhir/NamingSystem/conditionId",
        "value": "2b7de9961a8f7adbb58b96b76dda4bcc4cb0401bbf2065a99d3db975a88b8b11"
      } ],
      "verificationStatus": {
        "coding": [ {
          "system": "http://terminology.hl7.org/CodeSystem/condition-ver-status",
          "code": "refuted",
          "display": "Refuted"
        }, {
          "system": "http://snomed.info/sct",
          "code": "410594000",
          "display": "Definitely NOT present (qualifier value)"
        } ]
      },
      "category": [ {
        "coding": [ {
          "system": "http://snomed.info/sct",
          "code": "788415003",
          "display": "Transplant medicine (qualifier value)"
        } ]
      } ],
      "code": {
        "coding": [ {
          "system": "http://fhir.de/CodeSystem/dimdi/icd-10-gm",
          "version": "2021",
          "code": "Z94.9"
        } ]
      },
      "bodySite": [ {
        "coding": [ {
          "system": "http://snomed.info/sct",
          "code": "309312004"
        } ]
      } ],
      "subject": {
        "reference": "Patient/92933a3678d1b6e8b1c7f67c4018a24f010d30e88b78083b7267ceaff46e5972"
      },
      "encounter": {
        "reference": "Encounter/932798f2bd43b79c3c7f0cf2ddc4321aab4c0471b2bc62bb49937d2c132a6354"
      },
      "_recordedDate": {
        "extension": [ {
          "url": "http://hl7.org/fhir/StructureDefinition/data-absent-reason",
          "valueCode": "unknown"
        } ]
      }
    },
    "request": {
      "method": "POST",
      "url": "Condition",
      "ifNoneExist": "identifier=https://mein.krankenhaus.de/fhir/NamingSystem/conditionId|5850f44b9d5e6d0d192fff56f0434268ca32936c6ee6b7a835e2698d15a78cec"
    }
  }, {
    "fullUrl": "Condition/d400cc462d168b665b6531c2a68ac5bebbb64b26102e31e290a84f3266c227bc",
    "resource": {
      "resourceType": "Condition",
      "meta": {
        "profile": [ "https://www.netzwerk-universitaetsmedizin.de/fhir/StructureDefinition/organ-recipient" ]
      },
      "modifierExtension": [ {
        "url": "https://www.netzwerk-universitaetsmedizin.de/fhir/StructureDefinition/uncertainty-of-presence",
        "valueCodeableConcept": {
          "coding": [ {
            "system": "http://snomed.info/sct",
            "code": "261665006",
            "display": "Unknown (qualifier value)"
          } ],
          "text": "Presence unknown."
        }
      } ],
      "identifier": [ {
        "system": "https://mein.krankenhaus.de/fhir/NamingSystem/conditionId",
        "value": "00d03ea0d55c886496a6369734553c4d9df4e1a5a27732571c06312fe51b9d16"
      } ],
      "category": [ {
        "coding": [ {
          "system": "http://snomed.info/sct",
          "code": "788415003",
          "display": "Transplant medicine (qualifier value)"
        } ]
      } ],
      "code": {
        "coding": [ {
          "system": "http://fhir.de/CodeSystem/dimdi/icd-10-gm",
          "version": "2021",
          "code": "Z94.9"
        } ]
      },
      "bodySite": [ {
        "coding": [ {
          "system": "http://snomed.info/sct",
          "code": "13024002"
        } ]
      } ],
      "subject": {
        "reference": "Patient/92933a3678d1b6e8b1c7f67c4018a24f010d30e88b78083b7267ceaff46e5972"
      },
      "encounter": {
        "reference": "Encounter/932798f2bd43b79c3c7f0cf2ddc4321aab4c0471b2bc62bb49937d2c132a6354"
      },
      "_recordedDate": {
        "extension": [ {
          "url": "http://hl7.org/fhir/StructureDefinition/data-absent-reason",
          "valueCode": "unknown"
        } ]
      }
    },
    "request": {
      "method": "POST",
      "url": "Condition",
      "ifNoneExist": "identifier=https://mein.krankenhaus.de/fhir/NamingSystem/conditionId|d400cc462d168b665b6531c2a68ac5bebbb64b26102e31e290a84f3266c227bc"
    }
  }, {
    "fullUrl": "Condition/41a6b5fcb22d6c4dd9b83444f8f2418b3c5b1592fa1c332a04683bf1b4823a47",
    "resource": {
      "resourceType": "Condition",
      "meta": {
        "profile": [ "https://www.netzwerk-universitaetsmedizin.de/fhir/StructureDefinition/diabetes-mellitus" ]
      },
      "identifier": [ {
        "system": "https://mein.krankenhaus.de/fhir/NamingSystem/conditionId",
        "value": "e3acbe03897c0b3c9929fe888ab43edc8d059c567796c0a2928d29ec982948d9"
      } ],
      "verificationStatus": {
        "coding": [ {
          "system": "http://terminology.hl7.org/CodeSystem/condition-ver-status",
          "code": "confirmed",
          "display": "Confirmed"
        }, {
          "system": "http://snomed.info/sct",
          "code": "410605003",
          "display": "Confirmed present (qualifier value)"
        } ]
      },
      "category": [ {
        "coding": [ {
          "system": "http://snomed.info/sct",
          "code": "408475000",
          "display": "Diabetic medicine (qualifier value)"
        } ]
      } ],
      "code": {
        "coding": [ {
          "system": "http://fhir.de/CodeSystem/dimdi/icd-10-gm",
          "version": "2021",
          "code": "E10.9"
        }, {
          "system": "http://snomed.info/sct",
          "code": "46635009"
        } ]
      },
      "subject": {
        "reference": "Patient/92933a3678d1b6e8b1c7f67c4018a24f010d30e88b78083b7267ceaff46e5972"
      },
      "encounter": {
        "reference": "Encounter/932798f2bd43b79c3c7f0cf2ddc4321aab4c0471b2bc62bb49937d2c132a6354"
      },
      "_recordedDate": {
        "extension": [ {
          "url": "http://hl7.org/fhir/StructureDefinition/data-absent-reason",
          "valueCode": "unknown"
        } ]
      }
    },
    "request": {
      "method": "POST",
      "url": "Condition",
      "ifNoneExist": "identifier=https://mein.krankenhaus.de/fhir/NamingSystem/conditionId|41a6b5fcb22d6c4dd9b83444f8f2418b3c5b1592fa1c332a04683bf1b4823a47"
    }
  }, {
    "fullUrl": "Condition/0d2c57a4996ffc4d046d1a53a115565e9815ba6a587c4a100fad8533d28ce5cf",
    "resource": {
      "resourceType": "Condition",
      "meta": {
        "profile": [ "https://www.netzwerk-universitaetsmedizin.de/fhir/StructureDefinition/malignant-neoplastic-disease" ]
      },
      "identifier": [ {
        "system": "https://mein.krankenhaus.de/fhir/NamingSystem/conditionId",
        "value": "b7db053fc2b002ef09b04c46ea6d4d7cf064882416e3957fc1166b7b66753fdb"
      } ],
      "clinicalStatus": {
        "coding": [ {
          "system": "http://terminology.hl7.org/CodeSystem/condition-clinical",
          "code": "active",
          "display": "Active"
        } ]
      },
      "verificationStatus": {
        "coding": [ {
          "system": "http://terminology.hl7.org/CodeSystem/condition-ver-status",
          "code": "confirmed",
          "display": "Confirmed"
        }, {
          "system": "http://snomed.info/sct",
          "code": "410605003",
          "display": "Confirmed present (qualifier value)"
        } ]
      },
      "category": [ {
        "coding": [ {
          "system": "http://snomed.info/sct",
          "code": "394593009",
          "display": "Medical oncology (qualifier value)"
        } ]
      } ],
      "code": {
        "coding": [ {
          "system": "http://fhir.de/CodeSystem/dimdi/icd-10-gm",
          "version": "2021",
          "code": "C80.9"
        }, {
          "system": "http://snomed.info/sct",
          "code": "363346000"
        } ]
      },
      "subject": {
        "reference": "Patient/92933a3678d1b6e8b1c7f67c4018a24f010d30e88b78083b7267ceaff46e5972"
      },
      "encounter": {
        "reference": "Encounter/932798f2bd43b79c3c7f0cf2ddc4321aab4c0471b2bc62bb49937d2c132a6354"
      },
      "_recordedDate": {
        "extension": [ {
          "url": "http://hl7.org/fhir/StructureDefinition/data-absent-reason",
          "valueCode": "unknown"
        } ]
      }
    },
    "request": {
      "method": "POST",
      "url": "Condition",
      "ifNoneExist": "identifier=https://mein.krankenhaus.de/fhir/NamingSystem/conditionId|0d2c57a4996ffc4d046d1a53a115565e9815ba6a587c4a100fad8533d28ce5cf"
    }
  }, {
    "fullUrl": "Condition/40ddf33e29622baab1c87e477a795c5c5b5b69bdbb79c1d4e7a7d315edffb65c",
    "resource": {
      "resourceType": "Condition",
      "meta": {
        "profile": [ "https://www.netzwerk-universitaetsmedizin.de/fhir/StructureDefinition/gastrointestinal-ulcers" ]
      },
      "identifier": [ {
        "system": "https://mein.krankenhaus.de/fhir/NamingSystem/conditionId",
        "value": "8c788cd6beb6dd75ac32caab1658a3184f7786b2f472132ce21898de39bb9496"
      } ],
      "verificationStatus": {
        "coding": [ {
          "system": "http://terminology.hl7.org/CodeSystem/condition-ver-status",
          "code": "refuted",
          "display": "Refuted"
        }, {
          "system": "http://snomed.info/sct",
          "code": "410594000",
          "display": "Definitely NOT present (qualifier value)"
        } ]
      },
      "category": [ {
        "coding": [ {
          "system": "http://snomed.info/sct",
          "code": "394584008",
          "display": "Gastroenterology (qualifier value))"
        } ]
      } ],
      "code": {
        "coding": [ {
          "system": "http://fhir.de/CodeSystem/dimdi/icd-10-gm",
          "version": "2021",
          "code": "K28"
        }, {
          "system": "http://snomed.info/sct",
          "code": "40845000"
        } ]
      },
      "subject": {
        "reference": "Patient/92933a3678d1b6e8b1c7f67c4018a24f010d30e88b78083b7267ceaff46e5972"
      },
      "encounter": {
        "reference": "Encounter/932798f2bd43b79c3c7f0cf2ddc4321aab4c0471b2bc62bb49937d2c132a6354"
      },
      "_recordedDate": {
        "extension": [ {
          "url": "http://hl7.org/fhir/StructureDefinition/data-absent-reason",
          "valueCode": "unknown"
        } ]
      }
    },
    "request": {
      "method": "POST",
      "url": "Condition",
      "ifNoneExist": "identifier=https://mein.krankenhaus.de/fhir/NamingSystem/conditionId|40ddf33e29622baab1c87e477a795c5c5b5b69bdbb79c1d4e7a7d315edffb65c"
    }
  }, {
    "fullUrl": "Observation/bd1e04dabebc9590f4a3a7d5fb8d69ec6120f00cb7ed69a2d48d8eb9613fe79c",
    "resource": {
      "resourceType": "Observation",
      "meta": {
        "profile": [ "https://www.netzwerk-universitaetsmedizin.de/fhir/StructureDefinition/smoking-status" ]
      },
      "identifier": [ {
        "system": "https://mein.krankenhaus.de/fhir/NamingSystem/observationId",
        "value": "209835544aac3180704713e327e73ee87d97014f5f88c803f89c1429d328c512"
      } ],
      "status": "final",
      "category": [ {
        "coding": [ {
          "system": "http://terminology.hl7.org/CodeSystem/observation-category",
          "code": "social-history",
          "display": "Social History"
        } ]
      } ],
      "code": {
        "coding": [ {
          "system": "http://loinc.org",
          "code": "72166-2"
        } ]
      },
      "subject": {
        "reference": "Patient/92933a3678d1b6e8b1c7f67c4018a24f010d30e88b78083b7267ceaff46e5972"
      },
      "encounter": {
        "reference": "Encounter/932798f2bd43b79c3c7f0cf2ddc4321aab4c0471b2bc62bb49937d2c132a6354"
      },
      "_effectiveDateTime": {
        "extension": [ {
          "url": "http://hl7.org/fhir/StructureDefinition/data-absent-reason",
          "valueCode": "unknown"
        } ]
      },
      "valueCodeableConcept": {
        "coding": [ {
          "system": "http://loinc.org",
          "code": "LA18978-9"
        } ]
      }
    },
    "request": {
      "method": "POST",
      "url": "Observation",
      "ifNoneExist": "identifier=https://mein.krankenhaus.de/fhir/NamingSystem/observationId|bd1e04dabebc9590f4a3a7d5fb8d69ec6120f00cb7ed69a2d48d8eb9613fe79c"
    }
  }, {
    "fullUrl": "Procedure/6256d8839c881f0dccc3547d2132d93b9032454d445bfe32c455e0bde6140337",
    "resource": {
      "resourceType": "Procedure",
      "meta": {
        "profile": [ "https://www.netzwerk-universitaetsmedizin.de/fhir/StructureDefinition/respiratory-therapies" ]
      },
      "identifier": [ {
        "system": "https://mein.krankenhaus.de/fhir/NamingSystem/procedureId",
        "value": "7ed46fde5ef7511d73b14cfc612b400075516b8f5bf165688c5d24bd13d83b0d"
      } ],
      "status": "in-progress",
      "category": {
        "coding": [ {
          "system": "http://snomed.info/sct",
          "code": "277132007",
          "display": "Therapeutic procedure (procedure)"
        } ]
      },
      "code": {
        "coding": [ {
          "system": "http://snomed.info/sct",
          "code": "53950000"
        } ]
      },
      "subject": {
        "reference": "Patient/92933a3678d1b6e8b1c7f67c4018a24f010d30e88b78083b7267ceaff46e5972"
      },
      "encounter": {
        "reference": "Encounter/932798f2bd43b79c3c7f0cf2ddc4321aab4c0471b2bc62bb49937d2c132a6354"
      },
      "_performedDateTime": {
        "extension": [ {
          "url": "http://hl7.org/fhir/StructureDefinition/data-absent-reason",
          "valueCode": "unknown"
        } ]
      }
    },
    "request": {
      "method": "POST",
      "url": "Procedure",
      "ifNoneExist": "identifier=https://mein.krankenhaus.de/fhir/NamingSystem/procedureId|6256d8839c881f0dccc3547d2132d93b9032454d445bfe32c455e0bde6140337"
    }
  }, {
    "fullUrl": "Immunization/0edc2d0713248e195f70a39874a12c6c35aac5507e8e667d762363e8bb14adc1",
    "resource": {
      "resourceType": "Immunization",
      "meta": {
        "profile": [ "https://www.netzwerk-universitaetsmedizin.de/fhir/StructureDefinition/immunization" ]
      },
      "identifier": [ {
        "system": "https://mein.krankenhaus.de/fhir/NamingSystem/immunizationId",
        "value": "9f694b986148f4523ef2294f748e65c7432f8ee8337f79b25c5f1beb43f27f98"
      } ],
      "status": "completed",
      "vaccineCode": {
        "coding": [ {
          "system": "http://snomed.info/sct",
          "code": "836398006"
        } ]
      },
      "patient": {
        "reference": "Patient/92933a3678d1b6e8b1c7f67c4018a24f010d30e88b78083b7267ceaff46e5972"
      },
      "encounter": {
        "reference": "Encounter/932798f2bd43b79c3c7f0cf2ddc4321aab4c0471b2bc62bb49937d2c132a6354"
      },
      "occurrenceDateTime": "2020-04-19",
      "protocolApplied": [ {
        "targetDisease": [ {
          "coding": [ {
            "system": "http://snomed.info/sct",
            "code": "16814004"
          } ]
        } ],
        "_doseNumberString": {
          "extension": [ {
            "url": "http://hl7.org/fhir/StructureDefinition/data-absent-reason",
            "valueCode": "unknown"
          } ]
        }
      } ]
    },
    "request": {
      "method": "POST",
      "url": "Immunization",
      "ifNoneExist": "identifier=https://mein.krankenhaus.de/fhir/NamingSystem/immunizationId|0edc2d0713248e195f70a39874a12c6c35aac5507e8e667d762363e8bb14adc1"
    }
  }, {
    "fullUrl": "Immunization/66baad22783425380fdb6feeaf97ebd7d47ed10cc022fa8c4661c9163f58de7b",
    "resource": {
      "resourceType": "Immunization",
      "meta": {
        "profile": [ "https://www.netzwerk-universitaetsmedizin.de/fhir/StructureDefinition/immunization" ]
      },
      "identifier": [ {
        "system": "https://mein.krankenhaus.de/fhir/NamingSystem/immunizationId",
        "value": "851fa05cdfa2d088e9756160ee0738bb75cf25a4a753bdd2d76be55fb8797d19"
      } ],
      "status": "not-done",
      "vaccineCode": {
        "coding": [ {
          "system": "http://snomed.info/sct",
          "code": "836402002"
        } ]
      },
      "patient": {
        "reference": "Patient/92933a3678d1b6e8b1c7f67c4018a24f010d30e88b78083b7267ceaff46e5972"
      },
      "encounter": {
        "reference": "Encounter/932798f2bd43b79c3c7f0cf2ddc4321aab4c0471b2bc62bb49937d2c132a6354"
      },
      "_occurrenceDateTime": {
        "extension": [ {
          "url": "http://hl7.org/fhir/StructureDefinition/data-absent-reason",
          "valueCode": "unknown"
        } ]
      },
      "protocolApplied": [ {
        "targetDisease": [ {
          "coding": [ {
            "system": "http://snomed.info/sct",
            "code": "56717001"
          } ]
        } ],
        "_doseNumberString": {
          "extension": [ {
            "url": "http://hl7.org/fhir/StructureDefinition/data-absent-reason",
            "valueCode": "unknown"
          } ]
        }
      } ]
    },
    "request": {
      "method": "POST",
      "url": "Immunization",
      "ifNoneExist": "identifier=https://mein.krankenhaus.de/fhir/NamingSystem/immunizationId|66baad22783425380fdb6feeaf97ebd7d47ed10cc022fa8c4661c9163f58de7b"
    }
  }, {
    "fullUrl": "Immunization/d2a60bd4c0542c00d611e8bcbb3d32f90e59854a3efff7ec3ed291d4f760098d",
    "resource": {
      "resourceType": "Immunization",
      "meta": {
        "profile": [ "https://www.netzwerk-universitaetsmedizin.de/fhir/StructureDefinition/immunization" ]
      },
      "identifier": [ {
        "system": "https://mein.krankenhaus.de/fhir/NamingSystem/immunizationId",
        "value": "2f7871fd0bf222b5eac9d9ed222014693fa04192d3cf2e75e9801cecd414a276"
      } ],
      "status": "completed",
      "vaccineCode": {
        "coding": [ {
          "system": "http://hl7.org/fhir/uv/ips/CodeSystem/absent-unknown-uv-ips",
          "code": "no-known-immunizations",
          "display": "vaccineCode unknown"
        } ]
      },
      "patient": {
        "reference": "Patient/92933a3678d1b6e8b1c7f67c4018a24f010d30e88b78083b7267ceaff46e5972"
      },
      "encounter": {
        "reference": "Encounter/932798f2bd43b79c3c7f0cf2ddc4321aab4c0471b2bc62bb49937d2c132a6354"
      },
      "occurrenceDateTime": "2020-11-13",
      "protocolApplied": [ {
        "targetDisease": [ {
          "coding": [ {
            "system": "http://snomed.info/sct",
            "code": "64572001"
          } ],
          "text": "<Freitext>"
        } ],
        "_doseNumberString": {
          "extension": [ {
            "url": "http://hl7.org/fhir/StructureDefinition/data-absent-reason",
            "valueCode": "unknown"
          } ]
        }
      } ]
    },
    "request": {
      "method": "POST",
      "url": "Immunization",
      "ifNoneExist": "identifier=https://mein.krankenhaus.de/fhir/NamingSystem/immunizationId|d2a60bd4c0542c00d611e8bcbb3d32f90e59854a3efff7ec3ed291d4f760098d"
    }
  }, {
    "fullUrl": "Consent/0a01c6d26c2242a2a5aa8925a3e5327bf6ca790d454d9c73602769b65f761e35",
    "resource": {
      "resourceType": "Consent",
      "meta": {
        "profile": [ "https://www.netzwerk-universitaetsmedizin.de/fhir/StructureDefinition/do-not-resuscitate-order" ]
      },
      "identifier": [ {
        "system": "https://mein.krankenhaus.de/fhir/NamingSystem/consentId",
        "value": "29dfd1a10ea2d0680cff7e78e9b0b1f92dbd47996b5ace2472fcb8e49ad7bc8d"
      } ],
      "status": "active",
      "scope": {
        "coding": [ {
          "system": "http://terminology.hl7.org/CodeSystem/consentscope",
          "code": "adr",
          "display": "Advanced Care Directive"
        } ]
      },
      "category": [ {
        "coding": [ {
          "system": "http://terminology.hl7.org/CodeSystem/consentcategorycodes",
          "code": "dnr",
          "display": "Do Not Resuscitate"
        } ]
      } ],
      "patient": {
        "reference": "Patient/92933a3678d1b6e8b1c7f67c4018a24f010d30e88b78083b7267ceaff46e5972"
      },
      "policy": [ {
        "uri": "https://www.aerzteblatt.de/archiv/65440/DNR-Anordnungen-Das-fehlende-Bindeglied"
      } ],
      "provision": {
        "code": [ {
          "coding": [ {
            "system": "http://snomed.info/sct",
            "code": "304252001"
          } ]
        } ]
      }
    },
    "request": {
      "method": "POST",
      "url": "Consent",
      "ifNoneExist": "identifier=https://mein.krankenhaus.de/fhir/NamingSystem/consentId|0a01c6d26c2242a2a5aa8925a3e5327bf6ca790d454d9c73602769b65f761e35"
    }
  }, {
    "fullUrl": "Observation/83eab722f6e9018ef50c489c8b7b498c3b802ba7f45ea4a87be8689ee52862a0",
    "resource": {
      "resourceType": "Observation",
      "meta": {
        "profile": [ "https://www.netzwerk-universitaetsmedizin.de/fhir/StructureDefinition/sex-assigned-at-birth" ]
      },
      "identifier": [ {
        "system": "https://mein.krankenhaus.de/fhir/NamingSystem/observationId",
        "value": "0085783278fdef7b42b78d8fa0ca8ff3c967b2ff1460d3042d25fac3bdb321c6"
      } ],
      "status": "final",
      "category": [ {
        "coding": [ {
          "system": "http://terminology.hl7.org/CodeSystem/observation-category",
          "code": "social-history",
          "display": "Social History"
        } ]
      } ],
      "code": {
        "coding": [ {
          "system": "http://loinc.org",
          "code": "76689-9"
        } ]
      },
      "subject": {
        "reference": "Patient/92933a3678d1b6e8b1c7f67c4018a24f010d30e88b78083b7267ceaff46e5972"
      },
      "encounter": {
        "reference": "Encounter/932798f2bd43b79c3c7f0cf2ddc4321aab4c0471b2bc62bb49937d2c132a6354"
      },
      "_effectiveDateTime": {
        "extension": [ {
          "url": "http://hl7.org/fhir/StructureDefinition/data-absent-reason",
          "valueCode": "unknown"
        } ]
      },
      "valueCodeableConcept": {
        "coding": [ {
          "system": "http://fhir.de/CodeSystem/gender-amtlich-de",
          "code": "D"
        } ]
      }
    },
    "request": {
      "method": "POST",
      "url": "Observation",
      "ifNoneExist": "identifier=https://mein.krankenhaus.de/fhir/NamingSystem/observationId|83eab722f6e9018ef50c489c8b7b498c3b802ba7f45ea4a87be8689ee52862a0"
    }
  }, {
    "fullUrl": "Observation/fc59d54a6aaa16cfee572dcbac8557acf5a1ed02bdd7ec7e05a2216abc6d1928",
    "resource": {
      "resourceType": "Observation",
      "meta": {
        "profile": [ "https://www.netzwerk-universitaetsmedizin.de/fhir/StructureDefinition/frailty-score" ]
      },
      "identifier": [ {
        "type": {
          "coding": [ {
            "system": "http://terminology.hl7.org/CodeSystem/v2-0203",
            "code": "OBI",
            "display": "Observation Instance Identifier"
          } ]
        },
        "system": "https://mein.krankenhaus.de/fhir/NamingSystem/observationId",
        "value": "c7ae4a1e36748195a01587aa496df53b83c3cdc67aa770ff565757456b9883bb",
        "assigner": {
          "reference": "Organization/3a4f3433bce81181bad2d8e0b8fafccf7dc800bc06f29be73dcb38b750a48f9a"
        }
      } ],
      "status": "final",
      "category": [ {
        "coding": [ {
          "system": "http://terminology.hl7.org/CodeSystem/observation-category",
          "code": "survey",
          "display": "Survey"
        } ]
      } ],
      "code": {
        "coding": [ {
          "system": "http://snomed.info/sct",
          "code": "763264000"
        } ],
        "text": "Frailty Scale Score"
      },
      "subject": {
        "reference": "Patient/92933a3678d1b6e8b1c7f67c4018a24f010d30e88b78083b7267ceaff46e5972"
      },
      "encounter": {
        "reference": "Encounter/932798f2bd43b79c3c7f0cf2ddc4321aab4c0471b2bc62bb49937d2c132a6354"
      },
      "_effectiveDateTime": {
        "extension": [ {
          "url": "http://hl7.org/fhir/StructureDefinition/data-absent-reason",
          "valueCode": "unknown"
        } ]
      },
      "valueCodeableConcept": {
        "coding": [ {
          "system": "https://www.netzwerk-universitaetsmedizin.de/fhir/CodeSystem/frailty-score",
          "code": "7"
        } ]
      },
      "method": {
        "coding": [ {
          "system": "http://snomed.info/sct",
          "code": "445414007",
          "display": "Canadian Study of Health and Aging clinical frailty scale"
        } ]
      }
    },
    "request": {
      "method": "POST",
      "url": "Observation",
      "ifNoneExist": "identifier=https://mein.krankenhaus.de/fhir/NamingSystem/observationId|fc59d54a6aaa16cfee572dcbac8557acf5a1ed02bdd7ec7e05a2216abc6d1928"
    }
  }, {
    "fullUrl": "Observation/d210676c62e696f2a92a72c5353626fa7a4cded4f2a39da7d5670bba14bdff32",
    "resource": {
      "resourceType": "Observation",
      "meta": {
        "profile": [ "https://www.netzwerk-universitaetsmedizin.de/fhir/StructureDefinition/body-weight" ]
      },
      "identifier": [ {
        "type": {
          "coding": [ {
            "system": "http://terminology.hl7.org/CodeSystem/v2-0203",
            "code": "OBI",
            "display": "Observation Instance Identifier"
          } ]
        },
        "system": "https://mein.krankenhaus.de/fhir/NamingSystem/observationId",
        "value": "67d1cb86f896fe68f3c88c6191ac02b2f60197c322fce5d93cd087a61edb634c",
        "assigner": {
          "reference": "Organization/3a4f3433bce81181bad2d8e0b8fafccf7dc800bc06f29be73dcb38b750a48f9a"
        }
      } ],
      "status": "final",
      "category": [ {
        "coding": [ {
          "system": "http://terminology.hl7.org/CodeSystem/observation-category",
          "code": "vital-signs",
          "display": "Vital Signs"
        } ]
      } ],
      "code": {
        "coding": [ {
          "system": "http://loinc.org",
          "code": "29463-7"
        }, {
          "system": "http://snomed.info/sct",
          "code": "27113001"
        } ],
        "text": "Body Weight"
      },
      "subject": {
        "reference": "Patient/92933a3678d1b6e8b1c7f67c4018a24f010d30e88b78083b7267ceaff46e5972"
      },
      "encounter": {
        "reference": "Encounter/932798f2bd43b79c3c7f0cf2ddc4321aab4c0471b2bc62bb49937d2c132a6354"
      },
      "_effectiveDateTime": {
        "extension": [ {
          "url": "http://hl7.org/fhir/StructureDefinition/data-absent-reason",
          "valueCode": "unknown"
        } ]
      },
      "valueQuantity": {
        "value": 90,
        "unit": "kilogram",
        "system": "http://unitsofmeasure.org",
        "code": "kg"
      }
    },
    "request": {
      "method": "POST",
      "url": "Observation",
      "ifNoneExist": "identifier=https://mein.krankenhaus.de/fhir/NamingSystem/observationId|d210676c62e696f2a92a72c5353626fa7a4cded4f2a39da7d5670bba14bdff32"
    }
  }, {
    "fullUrl": "Observation/37865637767a32f7521225e52a5fb2876eb73333720208ea00f891e10613a398",
    "resource": {
      "resourceType": "Observation",
      "meta": {
        "profile": [ "https://www.netzwerk-universitaetsmedizin.de/fhir/StructureDefinition/body-height" ]
      },
      "identifier": [ {
        "type": {
          "coding": [ {
            "system": "http://terminology.hl7.org/CodeSystem/v2-0203",
            "code": "OBI",
            "display": "Observation Instance Identifier"
          } ]
        },
        "system": "https://mein.krankenhaus.de/fhir/NamingSystem/observationId",
        "value": "a6cf71f1795085d69ebe924a7b3eeb8f5408113bfe819b32c824fa83853e9329",
        "assigner": {
          "reference": "Organization/3a4f3433bce81181bad2d8e0b8fafccf7dc800bc06f29be73dcb38b750a48f9a"
        }
      } ],
      "status": "final",
      "category": [ {
        "coding": [ {
          "system": "http://terminology.hl7.org/CodeSystem/observation-category",
          "code": "vital-signs",
          "display": "Vital Signs"
        } ]
      } ],
      "code": {
        "coding": [ {
          "system": "http://loinc.org",
          "code": "8302-2"
        }, {
          "system": "http://snomed.info/sct",
          "code": "50373000"
        } ],
        "text": "Body height"
      },
      "subject": {
        "reference": "Patient/92933a3678d1b6e8b1c7f67c4018a24f010d30e88b78083b7267ceaff46e5972"
      },
      "encounter": {
        "reference": "Encounter/932798f2bd43b79c3c7f0cf2ddc4321aab4c0471b2bc62bb49937d2c132a6354"
      },
      "_effectiveDateTime": {
        "extension": [ {
          "url": "http://hl7.org/fhir/StructureDefinition/data-absent-reason",
          "valueCode": "unknown"
        } ]
      },
      "valueQuantity": {
        "value": 182,
        "unit": "centimeter",
        "system": "http://unitsofmeasure.org",
        "code": "cm"
      }
    },
    "request": {
      "method": "POST",
      "url": "Observation",
      "ifNoneExist": "identifier=https://mein.krankenhaus.de/fhir/NamingSystem/observationId|37865637767a32f7521225e52a5fb2876eb73333720208ea00f891e10613a398"
    }
  }, {
    "fullUrl": "Observation/929eeb8f34c5e7b7b63902750f7557942c866c9e879146474c1d3b48d7b924a7",
    "resource": {
      "resourceType": "Observation",
      "meta": {
        "profile": [ "https://www.netzwerk-universitaetsmedizin.de/fhir/StructureDefinition/known-exposure" ]
      },
      "identifier": [ {
        "type": {
          "coding": [ {
            "system": "http://terminology.hl7.org/CodeSystem/v2-0203",
            "code": "OBI",
            "display": "Observation Instance Identifier"
          } ]
        },
        "system": "https://mein.krankenhaus.de/fhir/NamingSystem/observationId",
        "value": "10b69e9e1f0b5c241b7619d768f57ec0d7f0b20c770fd93e0cf42bf326fb916f",
        "assigner": {
          "reference": "Organization/3a4f3433bce81181bad2d8e0b8fafccf7dc800bc06f29be73dcb38b750a48f9a"
        }
      } ],
      "status": "final",
      "category": [ {
        "coding": [ {
          "system": "http://terminology.hl7.org/CodeSystem/observation-category",
          "code": "social-history",
          "display": "Social History"
        } ]
      } ],
      "code": {
        "coding": [ {
          "system": "http://loinc.org",
          "code": "88636-6"
        } ],
        "text": "Known exposure"
      },
      "subject": {
        "reference": "Patient/92933a3678d1b6e8b1c7f67c4018a24f010d30e88b78083b7267ceaff46e5972"
      },
      "encounter": {
        "reference": "Encounter/932798f2bd43b79c3c7f0cf2ddc4321aab4c0471b2bc62bb49937d2c132a6354"
      },
      "_effectiveDateTime": {
        "extension": [ {
          "url": "http://hl7.org/fhir/StructureDefinition/data-absent-reason",
          "valueCode": "unknown"
        } ]
      },
      "valueCodeableConcept": {
        "coding": [ {
          "system": "http://snomed.info/sct",
          "code": "373067005"
        } ]
      }
    },
    "request": {
      "method": "POST",
      "url": "Observation",
      "ifNoneExist": "identifier=https://mein.krankenhaus.de/fhir/NamingSystem/observationId|929eeb8f34c5e7b7b63902750f7557942c866c9e879146474c1d3b48d7b924a7"
    }
  }, {
    "fullUrl": "Procedure/e5a42429692462bb4a38b657f7c9651f5a04211017d0a3d155fe08d62e9c526b",
    "resource": {
      "resourceType": "Procedure",
      "meta": {
        "profile": [ "https://www.netzwerk-universitaetsmedizin.de/fhir/StructureDefinition/apheresis" ]
      },
      "identifier": [ {
        "system": "https://mein.krankenhaus.de/fhir/NamingSystem/procedureId",
        "value": "f9bc51806fe34778b13cdef421c6bb16d930b7f2e9fa710a21b5a0fa7f3ef7a5"
      } ],
      "status": "in-progress",
      "category": {
        "coding": [ {
          "system": "http://snomed.info/sct",
          "code": "277132007",
          "display": "Therapeutic procedure (procedure)"
        } ]
      },
      "code": {
        "coding": [ {
          "system": "http://snomed.info/sct",
          "code": "127788007"
        } ],
        "text": "Apheresis"
      },
      "subject": {
        "reference": "Patient/92933a3678d1b6e8b1c7f67c4018a24f010d30e88b78083b7267ceaff46e5972"
      },
      "encounter": {
        "reference": "Encounter/932798f2bd43b79c3c7f0cf2ddc4321aab4c0471b2bc62bb49937d2c132a6354"
      },
      "_performedDateTime": {
        "extension": [ {
          "url": "http://hl7.org/fhir/StructureDefinition/data-absent-reason",
          "valueCode": "unknown"
        } ]
      }
    },
    "request": {
      "method": "POST",
      "url": "Procedure",
      "ifNoneExist": "identifier=https://mein.krankenhaus.de/fhir/NamingSystem/procedureId|e5a42429692462bb4a38b657f7c9651f5a04211017d0a3d155fe08d62e9c526b"
    }
  }, {
    "fullUrl": "Procedure/d1fc2c351b1aed2917fc25fcd0d5e16ca37b68e986509d20f7afb45acb1671af",
    "resource": {
      "resourceType": "Procedure",
      "meta": {
        "profile": [ "https://www.netzwerk-universitaetsmedizin.de/fhir/StructureDefinition/prone-position" ]
      },
      "identifier": [ {
        "system": "https://mein.krankenhaus.de/fhir/NamingSystem/procedureId",
        "value": "0961051653252cd62b619a8a18171914abb98ad8efe868fbc45b858f7108add2"
      } ],
      "status": "unknown",
      "category": {
        "coding": [ {
          "system": "http://snomed.info/sct",
          "code": "225287004",
          "display": "Procedures relating to positioning and support (procedure)"
        } ]
      },
      "code": {
        "coding": [ {
          "system": "http://snomed.info/sct",
          "code": "431182000"
        } ],
        "text": "Prone position"
      },
      "subject": {
        "reference": "Patient/92933a3678d1b6e8b1c7f67c4018a24f010d30e88b78083b7267ceaff46e5972"
      },
      "encounter": {
        "reference": "Encounter/932798f2bd43b79c3c7f0cf2ddc4321aab4c0471b2bc62bb49937d2c132a6354"
      },
      "_performedDateTime": {
        "extension": [ {
          "url": "http://hl7.org/fhir/StructureDefinition/data-absent-reason",
          "valueCode": "unknown"
        } ]
      }
    },
    "request": {
      "method": "POST",
      "url": "Procedure",
      "ifNoneExist": "identifier=https://mein.krankenhaus.de/fhir/NamingSystem/procedureId|d1fc2c351b1aed2917fc25fcd0d5e16ca37b68e986509d20f7afb45acb1671af"
    }
  }, {
    "fullUrl": "Observation/0dcd07ae41f4e1053ad6eca73b156669126cc8d63c06feb57c072cf346d04fa5",
    "resource": {
      "resourceType": "Observation",
      "meta": {
        "profile": [ "https://www.netzwerk-universitaetsmedizin.de/fhir/StructureDefinition/patient-in-icu" ]
      },
      "identifier": [ {
        "system": "https://mein.krankenhaus.de/fhir/NamingSystem/observationId",
        "value": "338f97d3dc781ab525cb78752d44f6bb393c2cace45f4f2bc1da80c1d17c7f4d"
      } ],
      "status": "final",
      "category": [ {
        "coding": [ {
          "system": "http://terminology.hl7.org/CodeSystem/observation-category",
          "code": "survey",
          "display": "Survey"
        } ]
      } ],
      "code": {
        "coding": [ {
          "system": "https://www.netzwerk-universitaetsmedizin.de/fhir/CodeSystem/ecrf-parameter-codes",
          "code": "01",
          "display": "Is the patient in the intensive care unit?"
        } ]
      },
      "subject": {
        "reference": "Patient/92933a3678d1b6e8b1c7f67c4018a24f010d30e88b78083b7267ceaff46e5972"
      },
      "encounter": {
        "reference": "Encounter/932798f2bd43b79c3c7f0cf2ddc4321aab4c0471b2bc62bb49937d2c132a6354"
      },
      "_effectiveDateTime": {
        "extension": [ {
          "url": "http://hl7.org/fhir/StructureDefinition/data-absent-reason",
          "valueCode": "unknown"
        } ]
      },
      "valueCodeableConcept": {
        "coding": [ {
          "system": "http://snomed.info/sct",
          "code": "373067005"
        } ]
      }
    },
    "request": {
      "method": "POST",
      "url": "Observation",
      "ifNoneExist": "identifier=https://mein.krankenhaus.de/fhir/NamingSystem/observationId|0dcd07ae41f4e1053ad6eca73b156669126cc8d63c06feb57c072cf346d04fa5"
    }
  }, {
    "fullUrl": "Condition/526691bddbc21b6b7c298a1d423281b53b83ffac7273ec27969e5e1708a0228b",
    "resource": {
      "resourceType": "Condition",
      "meta": {
        "profile": [ "https://www.netzwerk-universitaetsmedizin.de/fhir/StructureDefinition/dependence-on-ventilator" ]
      },
      "identifier": [ {
        "system": "https://mein.krankenhaus.de/fhir/NamingSystem/conditionId",
        "value": "ac42e165b105e0ccb34b43b8b4a6adf25a48a4987dbbff76968bb94a59379780"
      } ],
      "clinicalStatus": {
        "coding": [ {
          "system": "http://terminology.hl7.org/CodeSystem/condition-clinical",
          "code": "active",
          "display": "Active"
        } ]
      },
      "verificationStatus": {
        "coding": [ {
          "system": "http://terminology.hl7.org/CodeSystem/condition-ver-status",
          "code": "refuted",
          "display": "Refuted"
        }, {
          "system": "http://snomed.info/sct",
          "code": "410594000",
          "display": "Definitely NOT present (qualifier value)"
        } ]
      },
      "category": [ {
        "coding": [ {
          "system": "http://snomed.info/sct",
          "code": "404989005",
          "display": "Ventilation status (observable entity)"
        } ]
      } ],
      "code": {
        "coding": [ {
          "system": "http://snomed.info/sct",
          "code": "444932008"
        } ]
      },
      "subject": {
        "reference": "Patient/92933a3678d1b6e8b1c7f67c4018a24f010d30e88b78083b7267ceaff46e5972"
      },
      "encounter": {
        "reference": "Encounter/932798f2bd43b79c3c7f0cf2ddc4321aab4c0471b2bc62bb49937d2c132a6354"
      },
      "_recordedDate": {
        "extension": [ {
          "url": "http://hl7.org/fhir/StructureDefinition/data-absent-reason",
          "valueCode": "unknown"
        } ]
      }
    },
    "request": {
      "method": "POST",
      "url": "Condition",
      "ifNoneExist": "identifier=https://mein.krankenhaus.de/fhir/NamingSystem/conditionId|526691bddbc21b6b7c298a1d423281b53b83ffac7273ec27969e5e1708a0228b"
    }
  }, {
    "fullUrl": "Observation/bc15818414ba20f96895a6cdae9920d1897d4d45647fd5230ab4aba90bed6ff8",
    "resource": {
      "resourceType": "Observation",
      "meta": {
        "profile": [ "https://www.netzwerk-universitaetsmedizin.de/fhir/StructureDefinition/discharge-disposition" ]
      },
      "identifier": [ {
        "type": {
          "coding": [ {
            "system": "http://terminology.hl7.org/CodeSystem/v2-0203",
            "code": "OBI",
            "display": "Observation Instance Identifier"
          } ]
        },
        "system": "https://mein.krankenhaus.de/fhir/NamingSystem/observationId",
        "value": "eb99f91b85456332a9702c7cb37450b857d95f00f69f61356cb41a57a9507ec2",
        "assigner": {
          "reference": "Organization/3a4f3433bce81181bad2d8e0b8fafccf7dc800bc06f29be73dcb38b750a48f9a"
        }
      } ],
      "status": "final",
      "category": [ {
        "coding": [ {
          "system": "http://terminology.hl7.org/CodeSystem/observation-category",
          "code": "social-history",
          "display": "Social History"
        } ]
      } ],
      "code": {
        "coding": [ {
          "system": "http://loinc.org",
          "code": "55128-3"
        } ],
        "text": "type of Discharge"
      },
      "subject": {
        "reference": "Patient/92933a3678d1b6e8b1c7f67c4018a24f010d30e88b78083b7267ceaff46e5972"
      },
      "encounter": {
        "reference": "Encounter/932798f2bd43b79c3c7f0cf2ddc4321aab4c0471b2bc62bb49937d2c132a6354"
      },
      "_effectiveDateTime": {
        "extension": [ {
          "url": "http://hl7.org/fhir/StructureDefinition/data-absent-reason",
          "valueCode": "unknown"
        } ]
      },
      "valueCodeableConcept": {
        "coding": [ {
          "system": "http://snomed.info/sct",
          "code": "306237005"
        } ]
      }
    },
    "request": {
      "method": "POST",
      "url": "Observation",
      "ifNoneExist": "identifier=https://mein.krankenhaus.de/fhir/NamingSystem/observationId|bc15818414ba20f96895a6cdae9920d1897d4d45647fd5230ab4aba90bed6ff8"
    }
  }, {
    "fullUrl": "Observation/43c8940e43ba8364070c1b528ed1cdcf5551f512013ad6374ba5740ae283e156",
    "resource": {
      "resourceType": "Observation",
      "meta": {
        "profile": [ "https://www.netzwerk-universitaetsmedizin.de/fhir/StructureDefinition/sars-cov-2-rt-pcr" ]
      },
      "identifier": [ {
        "type": {
          "coding": [ {
            "system": "http://terminology.hl7.org/CodeSystem/v2-0203",
            "code": "OBI",
            "display": "Observation Instance Identifier"
          } ]
        },
        "system": "https://mein.krankenhaus.de/fhir/NamingSystem/observationId",
        "value": "47df030e102d9a6539fa2cf96e7823cbf2d218cee8a751233ac9b8373d7912e1",
        "assigner": {
          "reference": "Organization/3a4f3433bce81181bad2d8e0b8fafccf7dc800bc06f29be73dcb38b750a48f9a"
        }
      } ],
      "status": "final",
      "category": [ {
        "coding": [ {
          "system": "http://terminology.hl7.org/CodeSystem/observation-category",
          "code": "laboratory",
          "display": "Laboratory"
        }, {
          "system": "http://loinc.org",
          "code": "26436-6",
          "display": "Laboratory studies (set)"
        } ]
      } ],
      "code": {
        "coding": [ {
          "system": "http://loinc.org",
          "code": "94500-6"
        } ]
      },
      "subject": {
        "reference": "Patient/92933a3678d1b6e8b1c7f67c4018a24f010d30e88b78083b7267ceaff46e5972"
      },
      "encounter": {
        "reference": "Encounter/932798f2bd43b79c3c7f0cf2ddc4321aab4c0471b2bc62bb49937d2c132a6354"
      },
      "_effectiveDateTime": {
        "extension": [ {
          "url": "http://hl7.org/fhir/StructureDefinition/data-absent-reason",
          "valueCode": "unknown"
        } ]
      },
      "valueCodeableConcept": {
        "coding": [ {
          "system": "http://snomed.info/sct",
          "code": "260373001"
        } ]
      }
    },
    "request": {
      "method": "POST",
      "url": "Observation",
      "ifNoneExist": "identifier=https://mein.krankenhaus.de/fhir/NamingSystem/observationId|43c8940e43ba8364070c1b528ed1cdcf5551f512013ad6374ba5740ae283e156"
    }
  }, {
    "fullUrl": "MedicationStatement/449e2f89a6367dfd0590f0f05bbd0f49c2fd5cf0b8fd621939f71cd40ee3d9bb",
    "resource": {
      "resourceType": "MedicationStatement",
      "meta": {
        "profile": [ "https://www.netzwerk-universitaetsmedizin.de/fhir/StructureDefinition/pharmacological-therapy" ]
      },
      "identifier": [ {
        "system": "https://mein.krankenhaus.de/fhir/NamingSystem/medicationstatementId",
        "value": "936e206e3d7bbe4f62ddd2dd680bd9b50f9f39b6368fcf94310c9809412b8d87"
      } ],
      "status": "not-taken",
      "medicationCodeableConcept": {
        "coding": [ {
          "system": "http://snomed.info/sct",
          "code": "41549009"
        } ],
        "text": "ACE inhibitors"
      },
      "subject": {
        "reference": "Patient/92933a3678d1b6e8b1c7f67c4018a24f010d30e88b78083b7267ceaff46e5972"
      },
      "effectiveDateTime": "2020-02-11T17:52:00+00:00"
    },
    "request": {
      "method": "POST",
      "url": "MedicationStatement",
      "ifNoneExist": "identifier=https://mein.krankenhaus.de/fhir/NamingSystem/medicationstatementId|449e2f89a6367dfd0590f0f05bbd0f49c2fd5cf0b8fd621939f71cd40ee3d9bb"
    }
  }, {
    "fullUrl": "MedicationStatement/11ce9f8acde9b2a42bc2b7267fcb315fd73a19316ed27178ab6cbed999a040ed",
    "resource": {
      "resourceType": "MedicationStatement",
      "meta": {
        "profile": [ "https://www.netzwerk-universitaetsmedizin.de/fhir/StructureDefinition/pharmacological-therapy" ]
      },
      "identifier": [ {
        "system": "https://mein.krankenhaus.de/fhir/NamingSystem/medicationstatementId",
        "value": "89ebb2e407365c3378b37b0c8d070f44468a822428c5567959612c911ad4cd33"
      } ],
      "status": "not-taken",
      "medicationCodeableConcept": {
        "coding": [ {
          "system": "http://snomed.info/sct",
          "code": "333710000"
        } ],
        "text": "immunoglobulins"
      },
      "subject": {
        "reference": "Patient/92933a3678d1b6e8b1c7f67c4018a24f010d30e88b78083b7267ceaff46e5972"
      },
      "effectiveDateTime": "2020-02-11T17:52:00+00:00"
    },
    "request": {
      "method": "POST",
      "url": "MedicationStatement",
      "ifNoneExist": "identifier=https://mein.krankenhaus.de/fhir/NamingSystem/medicationstatementId|11ce9f8acde9b2a42bc2b7267fcb315fd73a19316ed27178ab6cbed999a040ed"
    }
  }, {
    "fullUrl": "Observation/ad8e8af320a5cf7a6c764a0867d0d1a78fa920eeee99f39f3fd3ec0db88ba56c",
    "resource": {
      "resourceType": "Observation",
      "meta": {
        "profile": [ "https://www.netzwerk-universitaetsmedizin.de/fhir/StructureDefinition/carbon-dioxide-partial-pressure" ]
      },
      "identifier": [ {
        "type": {
          "coding": [ {
            "system": "http://terminology.hl7.org/CodeSystem/v2-0203",
            "code": "OBI",
            "display": "Observation Instance Identifier"
          } ]
        },
        "system": "https://mein.krankenhaus.de/fhir/NamingSystem/observationId",
        "value": "92e7df3e2288d7612ab5506c4807ebd838bd7945ed06191f4277bbc6522c605a",
        "assigner": {
          "reference": "Organization/3a4f3433bce81181bad2d8e0b8fafccf7dc800bc06f29be73dcb38b750a48f9a"
        }
      } ],
      "status": "final",
      "category": [ {
        "coding": [ {
          "system": "http://terminology.hl7.org/CodeSystem/observation-category",
          "code": "laboratory",
          "display": "Laboratory"
        }, {
          "system": "http://loinc.org",
          "code": "26436-6",
          "display": "Laboratory studies (set)"
        }, {
          "system": "http://loinc.org",
          "code": "18767-4",
          "display": "Blood gas studies (set)"
        } ]
      } ],
      "code": {
        "coding": [ {
          "system": "http://loinc.org",
          "code": "11557-6"
        } ],
        "text": "Carbon dioxide [Partial pressure] in blood"
      },
      "subject": {
        "reference": "Patient/92933a3678d1b6e8b1c7f67c4018a24f010d30e88b78083b7267ceaff46e5972"
      },
      "encounter": {
        "reference": "Encounter/932798f2bd43b79c3c7f0cf2ddc4321aab4c0471b2bc62bb49937d2c132a6354"
      },
      "effectiveDateTime": "2020-12-03T09:43:00+00:00",
      "valueQuantity": {
        "value": 6,
        "unit": "mmHg",
        "system": "http://unitsofmeasure.org",
        "code": "mm[Hg]"
      }
    },
    "request": {
      "method": "POST",
      "url": "Observation",
      "ifNoneExist": "identifier=https://mein.krankenhaus.de/fhir/NamingSystem/observationId|ad8e8af320a5cf7a6c764a0867d0d1a78fa920eeee99f39f3fd3ec0db88ba56c"
    }
  }, {
    "fullUrl": "Observation/95c3c1fac656f9b36e3a2bf7e72cfdf00429bc4de4486c08b31219745e22bd2f",
    "resource": {
      "resourceType": "Observation",
      "meta": {
        "profile": [ "https://www.netzwerk-universitaetsmedizin.de/fhir/StructureDefinition/oxygen-partial-pressure" ]
      },
      "identifier": [ {
        "type": {
          "coding": [ {
            "system": "http://terminology.hl7.org/CodeSystem/v2-0203",
            "code": "OBI",
            "display": "Observation Instance Identifier"
          } ]
        },
        "system": "https://mein.krankenhaus.de/fhir/NamingSystem/observationId",
        "value": "be1385184d028107c5471566790e1ed43542a0b4c471f5ecf5efd304c8570c03",
        "assigner": {
          "reference": "Organization/3a4f3433bce81181bad2d8e0b8fafccf7dc800bc06f29be73dcb38b750a48f9a"
        }
      } ],
      "status": "final",
      "category": [ {
        "coding": [ {
          "system": "http://terminology.hl7.org/CodeSystem/observation-category",
          "code": "laboratory",
          "display": "Laboratory"
        }, {
          "system": "http://loinc.org",
          "code": "26436-6",
          "display": "Laboratory studies (set)"
        }, {
          "system": "http://loinc.org",
          "code": "18767-4",
          "display": "Blood gas studies (set)"
        } ]
      } ],
      "code": {
        "coding": [ {
          "system": "http://loinc.org",
          "code": "11557-8"
        } ],
        "text": "Oxygen [Partial pressure] in blood"
      },
      "subject": {
        "reference": "Patient/92933a3678d1b6e8b1c7f67c4018a24f010d30e88b78083b7267ceaff46e5972"
      },
      "encounter": {
        "reference": "Encounter/932798f2bd43b79c3c7f0cf2ddc4321aab4c0471b2bc62bb49937d2c132a6354"
      },
      "effectiveDateTime": "2020-12-03T09:43:00+00:00",
      "valueQuantity": {
        "value": 94,
        "unit": "mmHg",
        "system": "http://unitsofmeasure.org",
        "code": "mm[Hg]"
      }
    },
    "request": {
      "method": "POST",
      "url": "Observation",
      "ifNoneExist": "identifier=https://mein.krankenhaus.de/fhir/NamingSystem/observationId|95c3c1fac656f9b36e3a2bf7e72cfdf00429bc4de4486c08b31219745e22bd2f"
    }
  }, {
    "fullUrl": "Observation/238b80425b14bab54d454d2717d853a4d4af8d9b6dbaafc602f7cda79ecca015",
    "resource": {
      "resourceType": "Observation",
      "meta": {
        "profile": [ "https://www.netzwerk-universitaetsmedizin.de/fhir/StructureDefinition/inhaled-oxygen-concentration" ]
      },
      "identifier": [ {
        "type": {
          "coding": [ {
            "system": "http://terminology.hl7.org/CodeSystem/v2-0203",
            "code": "OBI",
            "display": "Observation Instance Identifier"
          } ]
        },
        "system": "https://mein.krankenhaus.de/fhir/NamingSystem/observationId",
        "value": "db65842d1435b74ed753a557f4318d67db490da78d51f3c265348777675c6999",
        "assigner": {
          "reference": "Organization/3a4f3433bce81181bad2d8e0b8fafccf7dc800bc06f29be73dcb38b750a48f9a"
        }
      } ],
      "status": "final",
      "category": [ {
        "coding": [ {
          "system": "http://terminology.hl7.org/CodeSystem/observation-category",
          "code": "laboratory",
          "display": "Laboratory"
        }, {
          "system": "http://loinc.org",
          "code": "26436-6",
          "display": "Laboratory studies (set)"
        }, {
          "system": "http://loinc.org",
          "code": "18767-4",
          "display": "Blood gas studies (set)"
        } ]
      } ],
      "code": {
        "coding": [ {
          "system": "http://loinc.org",
          "code": "3150-0"
        }, {
          "system": "http://snomed.info/sct",
          "code": "250774007"
        } ],
        "text": "Oxygen [Partial pressure] in blood"
      },
      "subject": {
        "reference": "Patient/92933a3678d1b6e8b1c7f67c4018a24f010d30e88b78083b7267ceaff46e5972"
      },
      "encounter": {
        "reference": "Encounter/932798f2bd43b79c3c7f0cf2ddc4321aab4c0471b2bc62bb49937d2c132a6354"
      },
      "effectiveDateTime": "2020-12-03T09:43:00+00:00",
      "valueQuantity": {
        "value": 80.7447693769902,
        "unit": "%",
        "system": "http://unitsofmeasure.org",
        "code": "%"
      }
    },
    "request": {
      "method": "POST",
      "url": "Observation",
      "ifNoneExist": "identifier=https://mein.krankenhaus.de/fhir/NamingSystem/observationId|238b80425b14bab54d454d2717d853a4d4af8d9b6dbaafc602f7cda79ecca015"
    }
  }, {
    "fullUrl": "Observation/acd7e5b8ee6fc2ee845a84369392e48e3a281c43ab2689c7f936522a4f0bd0e3",
    "resource": {
      "resourceType": "Observation",
      "meta": {
        "profile": [ "https://www.netzwerk-universitaetsmedizin.de/fhir/StructureDefinition/pH" ]
      },
      "identifier": [ {
        "type": {
          "coding": [ {
            "system": "http://terminology.hl7.org/CodeSystem/v2-0203",
            "code": "OBI",
            "display": "Observation Instance Identifier"
          } ]
        },
        "system": "https://mein.krankenhaus.de/fhir/NamingSystem/observationId",
        "value": "9bd4c45703ff40037c67de3041115a94ca5f133d61f4f01bb33f19b1638fee59",
        "assigner": {
          "reference": "Organization/3a4f3433bce81181bad2d8e0b8fafccf7dc800bc06f29be73dcb38b750a48f9a"
        }
      } ],
      "status": "final",
      "category": [ {
        "coding": [ {
          "system": "http://terminology.hl7.org/CodeSystem/observation-category",
          "code": "laboratory",
          "display": "Laboratory"
        }, {
          "system": "http://loinc.org",
          "code": "26436-6",
          "display": "Laboratory studies (set)"
        }, {
          "system": "http://loinc.org",
          "code": "18767-4",
          "display": "Blood gas studies (set)"
        } ]
      } ],
      "code": {
        "coding": [ {
          "system": "http://loinc.org",
          "code": "11558-4"
        } ],
        "text": "pH of Blood"
      },
      "subject": {
        "reference": "Patient/92933a3678d1b6e8b1c7f67c4018a24f010d30e88b78083b7267ceaff46e5972"
      },
      "encounter": {
        "reference": "Encounter/932798f2bd43b79c3c7f0cf2ddc4321aab4c0471b2bc62bb49937d2c132a6354"
      },
      "effectiveDateTime": "2020-12-03T09:43:00+00:00",
      "valueQuantity": {
        "value": 6.6705473211362465,
        "unit": "pH",
        "system": "http://unitsofmeasure.org",
        "code": "[pH]"
      }
    },
    "request": {
      "method": "POST",
      "url": "Observation",
      "ifNoneExist": "identifier=https://mein.krankenhaus.de/fhir/NamingSystem/observationId|acd7e5b8ee6fc2ee845a84369392e48e3a281c43ab2689c7f936522a4f0bd0e3"
    }
  }, {
    "fullUrl": "Observation/ab1340a389a66b653774bed566df4c7799ccde20a493c73a28251810c6e00532",
    "resource": {
      "resourceType": "Observation",
      "meta": {
        "profile": [ "https://www.netzwerk-universitaetsmedizin.de/fhir/StructureDefinition/sofa-score" ]
      },
      "identifier": [ {
        "type": {
          "coding": [ {
            "system": "http://terminology.hl7.org/CodeSystem/v2-0203",
            "code": "OBI",
            "display": "Observation Instance Identifier"
          } ]
        },
        "system": "https://mein.krankenhaus.de/fhir/NamingSystem/observationId",
        "value": "c143ae8030b12e1d4d43d2bc2ca2df29862e36300386a9299801907bd39ad2d0",
        "assigner": {
          "reference": "Organization/3a4f3433bce81181bad2d8e0b8fafccf7dc800bc06f29be73dcb38b750a48f9a"
        }
      } ],
      "status": "final",
      "category": [ {
        "coding": [ {
          "system": "http://terminology.hl7.org/CodeSystem/observation-category",
          "code": "survey",
          "display": "Survey"
        } ]
      } ],
      "code": {
        "coding": [ {
          "system": "https://www.netzwerk-universitaetsmedizin.de/fhir/CodeSystem/ecrf-parameter-codes",
          "code": "06",
          "display": "SOFA-Score"
        } ],
        "text": "Sepsis-related organ failure assessment score"
      },
      "subject": {
        "reference": "Patient/92933a3678d1b6e8b1c7f67c4018a24f010d30e88b78083b7267ceaff46e5972"
      },
      "encounter": {
        "reference": "Encounter/932798f2bd43b79c3c7f0cf2ddc4321aab4c0471b2bc62bb49937d2c132a6354"
      },
      "effectiveDateTime": "2020-12-03T09:43:00+00:00",
      "valueInteger": 12,
      "component": [ {
        "code": {
          "coding": [ {
            "system": "https://www.netzwerk-universitaetsmedizin.de/fhir/CodeSystem/sofa-score",
            "code": "resp",
            "display": "Respiratory system"
          } ],
          "text": "SOFA Respiratory system scoring category"
        },
        "valueCodeableConcept": {
          "coding": [ {
            "system": "https://www.netzwerk-universitaetsmedizin.de/fhir/CodeSystem/sofa-score",
            "code": "resp2",
            "display": "Respiratory system SOFA score 2"
          } ],
          "text": "PaO2/FiO2 [mmHg (kPa)] < 300 (40)"
        }
      }, {
        "code": {
          "coding": [ {
            "system": "https://www.netzwerk-universitaetsmedizin.de/fhir/CodeSystem/sofa-score",
            "code": "kid",
            "display": "Kidneys"
          } ],
          "text": "SOFA Kidneys scoring category"
        },
        "valueCodeableConcept": {
          "coding": [ {
            "system": "https://www.netzwerk-universitaetsmedizin.de/fhir/CodeSystem/sofa-score",
            "code": "kid4",
            "display": "Kidneys SOFA score 4"
          } ],
          "text": "Creatinine (mg/dl) [umol/L] (or urine output) > 5.0 [> 440] (or < 200 ml/d)"
        }
      }, {
        "code": {
          "coding": [ {
            "system": "https://www.netzwerk-universitaetsmedizin.de/fhir/CodeSystem/sofa-score",
            "code": "cvs",
            "display": "Cardiovascular system"
          } ],
          "text": "SOFA Cardiovascular system scoring category"
        },
        "valueCodeableConcept": {
          "coding": [ {
            "system": "https://www.netzwerk-universitaetsmedizin.de/fhir/CodeSystem/sofa-score",
            "code": "cvs2",
            "display": "Cardiovascular system SOFA score 2"
          } ],
          "text": "Administration of dopamine ≤ 5 ug/kg/min or dobutamine (any dose)"
        }
      }, {
        "code": {
          "coding": [ {
            "system": "https://www.netzwerk-universitaetsmedizin.de/fhir/CodeSystem/sofa-score",
            "code": "liv",
            "display": "Liver"
          } ],
          "text": "SOFA Liver scoring category"
        },
        "valueCodeableConcept": {
          "coding": [ {
            "system": "https://www.netzwerk-universitaetsmedizin.de/fhir/CodeSystem/sofa-score",
            "code": "liv4",
            "display": "Liver SOFA score 4"
          } ],
          "text": "Bilirubin (mg/dl) [umol/L] > 12.0 [> 204]"
        }
      }, {
        "code": {
          "coding": [ {
            "system": "https://www.netzwerk-universitaetsmedizin.de/fhir/CodeSystem/sofa-score",
            "code": "coa",
            "display": "Coagulation"
          } ],
          "text": "SOFA Coagulation scoring category"
        },
        "valueCodeableConcept": {
          "coding": [ {
            "system": "https://www.netzwerk-universitaetsmedizin.de/fhir/CodeSystem/sofa-score",
            "code": "coa0",
            "display": "Coagulation SOFA score 0"
          } ],
          "text": "Platelets×10^3/ul ? 150"
        }
      } ]
    },
    "request": {
      "method": "POST",
      "url": "Observation",
      "ifNoneExist": "identifier=https://mein.krankenhaus.de/fhir/NamingSystem/observationId|ab1340a389a66b653774bed566df4c7799ccde20a493c73a28251810c6e00532"
    }
  }, {
    "fullUrl": "Observation/f94680c21b2a7b6636019036cf138e2827bdfee85fb0e8834102c1031a005dad",
    "resource": {
      "resourceType": "Observation",
      "meta": {
        "profile": [ "https://www.netzwerk-universitaetsmedizin.de/fhir/StructureDefinition/respiratory-rate" ]
      },
      "identifier": [ {
        "type": {
          "coding": [ {
            "system": "http://terminology.hl7.org/CodeSystem/v2-0203",
            "code": "OBI",
            "display": "Observation Instance Identifier"
          } ]
        },
        "system": "https://mein.krankenhaus.de/fhir/NamingSystem/observationId",
        "value": "9cb0fbff63f43206ea955b44dc00f446ce8a4161588ec04c7cd0776c2044a706",
        "assigner": {
          "reference": "Organization/3a4f3433bce81181bad2d8e0b8fafccf7dc800bc06f29be73dcb38b750a48f9a"
        }
      } ],
      "status": "final",
      "category": [ {
        "coding": [ {
          "system": "http://terminology.hl7.org/CodeSystem/observation-category",
          "code": "vital-signs",
          "display": "Vital Signs"
        } ]
      } ],
      "code": {
        "coding": [ {
          "system": "http://loinc.org",
          "code": "9279-1"
        }, {
          "system": "http://snomed.info/sct",
          "code": "86290005"
        } ],
        "text": "Respiratory rate"
      },
      "subject": {
        "reference": "Patient/92933a3678d1b6e8b1c7f67c4018a24f010d30e88b78083b7267ceaff46e5972"
      },
      "encounter": {
        "reference": "Encounter/932798f2bd43b79c3c7f0cf2ddc4321aab4c0471b2bc62bb49937d2c132a6354"
      },
      "effectiveDateTime": "2020-12-03T09:43:00+00:00",
      "valueQuantity": {
        "value": 103,
        "unit": "per minute",
        "system": "http://unitsofmeasure.org",
        "code": "/min"
      }
    },
    "request": {
      "method": "POST",
      "url": "Observation",
      "ifNoneExist": "identifier=https://mein.krankenhaus.de/fhir/NamingSystem/observationId|f94680c21b2a7b6636019036cf138e2827bdfee85fb0e8834102c1031a005dad"
    }
  }, {
    "fullUrl": "Observation/9f2a9acca066c46a0cc1551328d1194d637f7a640a0dbf23c8e76710bda536c5",
    "resource": {
      "resourceType": "Observation",
      "meta": {
        "profile": [ "https://www.netzwerk-universitaetsmedizin.de/fhir/StructureDefinition/blood-pressure" ]
      },
      "identifier": [ {
        "type": {
          "coding": [ {
            "system": "http://terminology.hl7.org/CodeSystem/v2-0203",
            "code": "OBI",
            "display": "Observation Instance Identifier"
          } ]
        },
        "system": "https://mein.krankenhaus.de/fhir/NamingSystem/observationId",
        "value": "0784ecee744da98ae36bd5057438c640fe549040af6c721ea3b4c6ef67790fa5",
        "assigner": {
          "reference": "Organization/3a4f3433bce81181bad2d8e0b8fafccf7dc800bc06f29be73dcb38b750a48f9a"
        }
      } ],
      "status": "final",
      "category": [ {
        "coding": [ {
          "system": "http://terminology.hl7.org/CodeSystem/observation-category",
          "code": "vital-signs",
          "display": "Vital Signs"
        } ]
      } ],
      "code": {
        "coding": [ {
          "system": "http://loinc.org",
          "code": "85354-9",
          "display": "Blood pressure panel with all children optional"
        }, {
          "system": "http://snomed.info/sct",
          "code": "75367002",
          "display": "Blood pressure (observable entity)"
        } ],
        "text": "Blood pressure"
      },
      "subject": {
        "reference": "Patient/92933a3678d1b6e8b1c7f67c4018a24f010d30e88b78083b7267ceaff46e5972"
      },
      "encounter": {
        "reference": "Encounter/932798f2bd43b79c3c7f0cf2ddc4321aab4c0471b2bc62bb49937d2c132a6354"
      },
      "effectiveDateTime": "2020-12-03T09:43:00+00:00",
      "component": [ {
        "code": {
          "coding": [ {
            "system": "http://loinc.org",
            "code": "8480-6"
          }, {
            "system": "http://snomed.info/sct",
            "code": "271649006"
          } ],
          "text": "Systolic blood pressure"
        },
        "valueQuantity": {
          "value": 121,
          "unit": "mmHg",
          "system": "http://unitsofmeasure.org",
          "code": "mm[Hg]"
        }
      }, {
        "code": {
          "coding": [ {
            "system": "http://loinc.org",
            "code": "8462-4"
          }, {
            "system": "http://snomed.info/sct",
            "code": "271650006"
          } ],
          "text": "Diastolic blood pressure"
        },
        "valueQuantity": {
          "value": 57,
          "unit": "mmHg",
          "system": "http://unitsofmeasure.org",
          "code": "mm[Hg]"
        }
      } ]
    },
    "request": {
      "method": "POST",
      "url": "Observation",
      "ifNoneExist": "identifier=https://mein.krankenhaus.de/fhir/NamingSystem/observationId|9f2a9acca066c46a0cc1551328d1194d637f7a640a0dbf23c8e76710bda536c5"
    }
  }, {
    "fullUrl": "Observation/3da9698a2f786341eb72c22a6a6ea638e816c75bb77e10888f98e7d18a90f1fc",
    "resource": {
      "resourceType": "Observation",
      "meta": {
        "profile": [ "https://www.netzwerk-universitaetsmedizin.de/fhir/StructureDefinition/heart-rate" ]
      },
      "identifier": [ {
        "type": {
          "coding": [ {
            "system": "http://terminology.hl7.org/CodeSystem/v2-0203",
            "code": "OBI",
            "display": "Observation Instance Identifier"
          } ]
        },
        "system": "https://mein.krankenhaus.de/fhir/NamingSystem/observationId",
        "value": "2ac4c5b8595cf64d90d337e5c589b1e1faacc50eeb0f2b9235a1f98f758664c3",
        "assigner": {
          "reference": "Organization/3a4f3433bce81181bad2d8e0b8fafccf7dc800bc06f29be73dcb38b750a48f9a"
        }
      } ],
      "status": "final",
      "category": [ {
        "coding": [ {
          "system": "http://terminology.hl7.org/CodeSystem/observation-category",
          "code": "vital-signs",
          "display": "Vital Signs"
        } ]
      } ],
      "code": {
        "coding": [ {
          "system": "http://loinc.org",
          "code": "8867-4"
        }, {
          "system": "http://snomed.info/sct",
          "code": "364075005"
        } ],
        "text": "Heart rate"
      },
      "subject": {
        "reference": "Patient/92933a3678d1b6e8b1c7f67c4018a24f010d30e88b78083b7267ceaff46e5972"
      },
      "encounter": {
        "reference": "Encounter/932798f2bd43b79c3c7f0cf2ddc4321aab4c0471b2bc62bb49937d2c132a6354"
      },
      "effectiveDateTime": "2020-12-03T09:43:00+00:00",
      "valueQuantity": {
        "value": 3,
        "unit": "per minute",
        "system": "http://unitsofmeasure.org",
        "code": "/min"
      }
    },
    "request": {
      "method": "POST",
      "url": "Observation",
      "ifNoneExist": "identifier=https://mein.krankenhaus.de/fhir/NamingSystem/observationId|3da9698a2f786341eb72c22a6a6ea638e816c75bb77e10888f98e7d18a90f1fc"
    }
  }, {
    "fullUrl": "Observation/9a038fbf12f2cd76b8f99cec1f3a5b981233e16d90a206fb5c2cf49725f8c95b",
    "resource": {
      "resourceType": "Observation",
      "meta": {
        "profile": [ "https://www.netzwerk-universitaetsmedizin.de/fhir/StructureDefinition/body-temperature" ]
      },
      "identifier": [ {
        "type": {
          "coding": [ {
            "system": "http://terminology.hl7.org/CodeSystem/v2-0203",
            "code": "OBI",
            "display": "Observation Instance Identifier"
          } ]
        },
        "system": "https://mein.krankenhaus.de/fhir/NamingSystem/observationId",
        "value": "dc26aab13f413e11813db696122f14ec45baa3181d1f36ff74a0cc69c7eee663",
        "assigner": {
          "reference": "Organization/3a4f3433bce81181bad2d8e0b8fafccf7dc800bc06f29be73dcb38b750a48f9a"
        }
      } ],
      "status": "final",
      "category": [ {
        "coding": [ {
          "system": "http://terminology.hl7.org/CodeSystem/observation-category",
          "code": "vital-signs",
          "display": "Vital Signs"
        } ]
      } ],
      "code": {
        "coding": [ {
          "system": "http://loinc.org",
          "code": "8310-5"
        }, {
          "system": "http://snomed.info/sct",
          "code": "386725007"
        } ],
        "text": "Body temperature"
      },
      "subject": {
        "reference": "Patient/92933a3678d1b6e8b1c7f67c4018a24f010d30e88b78083b7267ceaff46e5972"
      },
      "encounter": {
        "reference": "Encounter/932798f2bd43b79c3c7f0cf2ddc4321aab4c0471b2bc62bb49937d2c132a6354"
      },
      "effectiveDateTime": "2020-12-03T09:43:00+00:00",
      "valueQuantity": {
        "value": 36.78518300307673,
        "unit": "°C",
        "system": "http://unitsofmeasure.org",
        "code": "Cel"
      }
    },
    "request": {
      "method": "POST",
      "url": "Observation",
      "ifNoneExist": "identifier=https://mein.krankenhaus.de/fhir/NamingSystem/observationId|9a038fbf12f2cd76b8f99cec1f3a5b981233e16d90a206fb5c2cf49725f8c95b"
    }
  }, {
    "fullUrl": "Observation/845d5bb02a13082c0211003cb6e284b7997108ff22a2bfce366b14d8c8d51f7f",
    "resource": {
      "resourceType": "Observation",
      "meta": {
        "profile": [ "https://www.netzwerk-universitaetsmedizin.de/fhir/StructureDefinition/oxygen-saturation" ]
      },
      "identifier": [ {
        "type": {
          "coding": [ {
            "system": "http://terminology.hl7.org/CodeSystem/v2-0203",
            "code": "OBI",
            "display": "Observation Instance Identifier"
          } ]
        },
        "system": "https://mein.krankenhaus.de/fhir/NamingSystem/observationId",
        "value": "0268173117c8e1ae09df3742b7d290dbaf2b9d09201cca0aa3d1f21e8629f716",
        "assigner": {
          "reference": "Organization/3a4f3433bce81181bad2d8e0b8fafccf7dc800bc06f29be73dcb38b750a48f9a"
        }
      } ],
      "status": "final",
      "category": [ {
        "coding": [ {
          "system": "http://terminology.hl7.org/CodeSystem/observation-category",
          "code": "vital-signs",
          "display": "Vital Signs"
        } ]
      } ],
      "code": {
        "coding": [ {
          "system": "http://loinc.org",
          "code": "2708-6"
        }, {
          "system": "http://loinc.org",
          "code": "59408-5"
        }, {
          "system": "http://loinc.org",
          "code": "20564-1"
        }, {
          "system": "http://snomed.info/sct",
          "code": "431314004"
        } ],
        "text": "Oxygen saturation in Arterial blood"
      },
      "subject": {
        "reference": "Patient/92933a3678d1b6e8b1c7f67c4018a24f010d30e88b78083b7267ceaff46e5972"
      },
      "encounter": {
        "reference": "Encounter/932798f2bd43b79c3c7f0cf2ddc4321aab4c0471b2bc62bb49937d2c132a6354"
      },
      "effectiveDateTime": "2020-12-03T09:43:00+00:00",
      "valueQuantity": {
        "value": 39,
        "unit": "%",
        "system": "http://unitsofmeasure.org",
        "code": "%"
      }
    },
    "request": {
      "method": "POST",
      "url": "Observation",
      "ifNoneExist": "identifier=https://mein.krankenhaus.de/fhir/NamingSystem/observationId|845d5bb02a13082c0211003cb6e284b7997108ff22a2bfce366b14d8c8d51f7f"
    }
  }, {
    "fullUrl": "Observation/92578270df536624dace579349e33205a73e2e5f1334433c31e1a2c0cad9a2d3",
    "resource": {
      "resourceType": "Observation",
      "meta": {
        "profile": [ "https://www.netzwerk-universitaetsmedizin.de/fhir/StructureDefinition/carbon-dioxide-partial-pressure" ]
      },
      "identifier": [ {
        "type": {
          "coding": [ {
            "system": "http://terminology.hl7.org/CodeSystem/v2-0203",
            "code": "OBI",
            "display": "Observation Instance Identifier"
          } ]
        },
        "system": "https://mein.krankenhaus.de/fhir/NamingSystem/observationId",
        "value": "9bbae979f798e6e2630368b91d6ff37fedb8de61d8f98114913cf50751e458cb",
        "assigner": {
          "reference": "Organization/3a4f3433bce81181bad2d8e0b8fafccf7dc800bc06f29be73dcb38b750a48f9a"
        }
      } ],
      "status": "final",
      "category": [ {
        "coding": [ {
          "system": "http://terminology.hl7.org/CodeSystem/observation-category",
          "code": "laboratory",
          "display": "Laboratory"
        }, {
          "system": "http://loinc.org",
          "code": "26436-6",
          "display": "Laboratory studies (set)"
        }, {
          "system": "http://loinc.org",
          "code": "18767-4",
          "display": "Blood gas studies (set)"
        } ]
      } ],
      "code": {
        "coding": [ {
          "system": "http://loinc.org",
          "code": "11557-6"
        } ],
        "text": "Carbon dioxide [Partial pressure] in blood"
      },
      "subject": {
        "reference": "Patient/92933a3678d1b6e8b1c7f67c4018a24f010d30e88b78083b7267ceaff46e5972"
      },
      "encounter": {
        "reference": "Encounter/932798f2bd43b79c3c7f0cf2ddc4321aab4c0471b2bc62bb49937d2c132a6354"
      },
      "effectiveDateTime": "2020-03-22T20:36:00+00:00",
      "valueQuantity": {
        "value": 19,
        "unit": "mmHg",
        "system": "http://unitsofmeasure.org",
        "code": "mm[Hg]"
      }
    },
    "request": {
      "method": "POST",
      "url": "Observation",
      "ifNoneExist": "identifier=https://mein.krankenhaus.de/fhir/NamingSystem/observationId|92578270df536624dace579349e33205a73e2e5f1334433c31e1a2c0cad9a2d3"
    }
  }, {
    "fullUrl": "Observation/e0865a15af638af619a5fb08e0d5c834feb8dc4b02b56f9172b7db85cad437da",
    "resource": {
      "resourceType": "Observation",
      "meta": {
        "profile": [ "https://www.netzwerk-universitaetsmedizin.de/fhir/StructureDefinition/oxygen-partial-pressure" ]
      },
      "identifier": [ {
        "type": {
          "coding": [ {
            "system": "http://terminology.hl7.org/CodeSystem/v2-0203",
            "code": "OBI",
            "display": "Observation Instance Identifier"
          } ]
        },
        "system": "https://mein.krankenhaus.de/fhir/NamingSystem/observationId",
        "value": "7d6ee0f9f5e5f23dd84185e82e5ec10812e2d61628d2cd204b945032c9ea7840",
        "assigner": {
          "reference": "Organization/3a4f3433bce81181bad2d8e0b8fafccf7dc800bc06f29be73dcb38b750a48f9a"
        }
      } ],
      "status": "final",
      "category": [ {
        "coding": [ {
          "system": "http://terminology.hl7.org/CodeSystem/observation-category",
          "code": "laboratory",
          "display": "Laboratory"
        }, {
          "system": "http://loinc.org",
          "code": "26436-6",
          "display": "Laboratory studies (set)"
        }, {
          "system": "http://loinc.org",
          "code": "18767-4",
          "display": "Blood gas studies (set)"
        } ]
      } ],
      "code": {
        "coding": [ {
          "system": "http://loinc.org",
          "code": "11557-8"
        } ],
        "text": "Oxygen [Partial pressure] in blood"
      },
      "subject": {
        "reference": "Patient/92933a3678d1b6e8b1c7f67c4018a24f010d30e88b78083b7267ceaff46e5972"
      },
      "encounter": {
        "reference": "Encounter/932798f2bd43b79c3c7f0cf2ddc4321aab4c0471b2bc62bb49937d2c132a6354"
      },
      "effectiveDateTime": "2020-03-22T20:36:00+00:00",
      "valueQuantity": {
        "value": 3,
        "unit": "mmHg",
        "system": "http://unitsofmeasure.org",
        "code": "mm[Hg]"
      }
    },
    "request": {
      "method": "POST",
      "url": "Observation",
      "ifNoneExist": "identifier=https://mein.krankenhaus.de/fhir/NamingSystem/observationId|e0865a15af638af619a5fb08e0d5c834feb8dc4b02b56f9172b7db85cad437da"
    }
  }, {
    "fullUrl": "Observation/788b7176495a74cbe80b66a6b5b082f2a175270985f8399193ba8d3825f191b0",
    "resource": {
      "resourceType": "Observation",
      "meta": {
        "profile": [ "https://www.netzwerk-universitaetsmedizin.de/fhir/StructureDefinition/inhaled-oxygen-concentration" ]
      },
      "identifier": [ {
        "type": {
          "coding": [ {
            "system": "http://terminology.hl7.org/CodeSystem/v2-0203",
            "code": "OBI",
            "display": "Observation Instance Identifier"
          } ]
        },
        "system": "https://mein.krankenhaus.de/fhir/NamingSystem/observationId",
        "value": "840175784281ddedcbd7f0d95124d7e578d54d5b6c2f8929869371df9971bb27",
        "assigner": {
          "reference": "Organization/3a4f3433bce81181bad2d8e0b8fafccf7dc800bc06f29be73dcb38b750a48f9a"
        }
      } ],
      "status": "final",
      "category": [ {
        "coding": [ {
          "system": "http://terminology.hl7.org/CodeSystem/observation-category",
          "code": "laboratory",
          "display": "Laboratory"
        }, {
          "system": "http://loinc.org",
          "code": "26436-6",
          "display": "Laboratory studies (set)"
        }, {
          "system": "http://loinc.org",
          "code": "18767-4",
          "display": "Blood gas studies (set)"
        } ]
      } ],
      "code": {
        "coding": [ {
          "system": "http://loinc.org",
          "code": "3150-0"
        }, {
          "system": "http://snomed.info/sct",
          "code": "250774007"
        } ],
        "text": "Oxygen [Partial pressure] in blood"
      },
      "subject": {
        "reference": "Patient/92933a3678d1b6e8b1c7f67c4018a24f010d30e88b78083b7267ceaff46e5972"
      },
      "encounter": {
        "reference": "Encounter/932798f2bd43b79c3c7f0cf2ddc4321aab4c0471b2bc62bb49937d2c132a6354"
      },
      "effectiveDateTime": "2020-03-22T20:36:00+00:00",
      "valueQuantity": {
        "value": 26.325078018018022,
        "unit": "%",
        "system": "http://unitsofmeasure.org",
        "code": "%"
      }
    },
    "request": {
      "method": "POST",
      "url": "Observation",
      "ifNoneExist": "identifier=https://mein.krankenhaus.de/fhir/NamingSystem/observationId|788b7176495a74cbe80b66a6b5b082f2a175270985f8399193ba8d3825f191b0"
    }
  }, {
    "fullUrl": "Observation/1b05eb56a3dd5b9e3bb0c0226ca8cd1a78787eacee9cd9eca80cfe322349178b",
    "resource": {
      "resourceType": "Observation",
      "meta": {
        "profile": [ "https://www.netzwerk-universitaetsmedizin.de/fhir/StructureDefinition/pH" ]
      },
      "identifier": [ {
        "type": {
          "coding": [ {
            "system": "http://terminology.hl7.org/CodeSystem/v2-0203",
            "code": "OBI",
            "display": "Observation Instance Identifier"
          } ]
        },
        "system": "https://mein.krankenhaus.de/fhir/NamingSystem/observationId",
        "value": "0a3d9e1a75b2029d3c01d6a0138be3125e729590055e5836923603a57c28172a",
        "assigner": {
          "reference": "Organization/3a4f3433bce81181bad2d8e0b8fafccf7dc800bc06f29be73dcb38b750a48f9a"
        }
      } ],
      "status": "final",
      "category": [ {
        "coding": [ {
          "system": "http://terminology.hl7.org/CodeSystem/observation-category",
          "code": "laboratory",
          "display": "Laboratory"
        }, {
          "system": "http://loinc.org",
          "code": "26436-6",
          "display": "Laboratory studies (set)"
        }, {
          "system": "http://loinc.org",
          "code": "18767-4",
          "display": "Blood gas studies (set)"
        } ]
      } ],
      "code": {
        "coding": [ {
          "system": "http://loinc.org",
          "code": "11558-4"
        } ],
        "text": "pH of Blood"
      },
      "subject": {
        "reference": "Patient/92933a3678d1b6e8b1c7f67c4018a24f010d30e88b78083b7267ceaff46e5972"
      },
      "encounter": {
        "reference": "Encounter/932798f2bd43b79c3c7f0cf2ddc4321aab4c0471b2bc62bb49937d2c132a6354"
      },
      "effectiveDateTime": "2020-03-22T20:36:00+00:00",
      "valueQuantity": {
        "value": 13.18433919748833,
        "unit": "pH",
        "system": "http://unitsofmeasure.org",
        "code": "[pH]"
      }
    },
    "request": {
      "method": "POST",
      "url": "Observation",
      "ifNoneExist": "identifier=https://mein.krankenhaus.de/fhir/NamingSystem/observationId|1b05eb56a3dd5b9e3bb0c0226ca8cd1a78787eacee9cd9eca80cfe322349178b"
    }
  }, {
    "fullUrl": "Observation/6a77b555be140908480fde8238bbdb5af77611bfaba79ce0482ee54078f79671",
    "resource": {
      "resourceType": "Observation",
      "meta": {
        "profile": [ "https://www.netzwerk-universitaetsmedizin.de/fhir/StructureDefinition/sofa-score" ]
      },
      "identifier": [ {
        "type": {
          "coding": [ {
            "system": "http://terminology.hl7.org/CodeSystem/v2-0203",
            "code": "OBI",
            "display": "Observation Instance Identifier"
          } ]
        },
        "system": "https://mein.krankenhaus.de/fhir/NamingSystem/observationId",
        "value": "61e241b2a5b913d6d52442c8a07a54bf2e290cd145587bdee0adc2187aed7928",
        "assigner": {
          "reference": "Organization/3a4f3433bce81181bad2d8e0b8fafccf7dc800bc06f29be73dcb38b750a48f9a"
        }
      } ],
      "status": "final",
      "category": [ {
        "coding": [ {
          "system": "http://terminology.hl7.org/CodeSystem/observation-category",
          "code": "survey",
          "display": "Survey"
        } ]
      } ],
      "code": {
        "coding": [ {
          "system": "https://www.netzwerk-universitaetsmedizin.de/fhir/CodeSystem/ecrf-parameter-codes",
          "code": "06",
          "display": "SOFA-Score"
        } ],
        "text": "Sepsis-related organ failure assessment score"
      },
      "subject": {
        "reference": "Patient/92933a3678d1b6e8b1c7f67c4018a24f010d30e88b78083b7267ceaff46e5972"
      },
      "encounter": {
        "reference": "Encounter/932798f2bd43b79c3c7f0cf2ddc4321aab4c0471b2bc62bb49937d2c132a6354"
      },
      "effectiveDateTime": "2020-03-22T20:36:00+00:00",
      "valueInteger": 9,
      "component": [ {
        "code": {
          "coding": [ {
            "system": "https://www.netzwerk-universitaetsmedizin.de/fhir/CodeSystem/sofa-score",
            "code": "resp",
            "display": "Respiratory system"
          } ],
          "text": "SOFA Respiratory system scoring category"
        },
        "valueCodeableConcept": {
          "coding": [ {
            "system": "https://www.netzwerk-universitaetsmedizin.de/fhir/CodeSystem/sofa-score",
            "code": "resp3",
            "display": "Respiratory system SOFA score 3"
          } ],
          "text": "PaO2/FiO2 [mmHg (kPa)] < 200 (26.7) and mechanically ventilated"
        }
      }, {
        "code": {
          "coding": [ {
            "system": "https://www.netzwerk-universitaetsmedizin.de/fhir/CodeSystem/sofa-score",
            "code": "ns",
            "display": "Nervous system"
          } ],
          "text": "SOFA Nervous system scoring category"
        },
        "valueCodeableConcept": {
          "coding": [ {
            "system": "https://www.netzwerk-universitaetsmedizin.de/fhir/CodeSystem/sofa-score",
            "code": "ns0",
            "display": "Nervous system SOFA score 0"
          } ],
          "text": "Glasgow Coma Scale (GCS) 15"
        }
      }, {
        "code": {
          "coding": [ {
            "system": "https://www.netzwerk-universitaetsmedizin.de/fhir/CodeSystem/sofa-score",
            "code": "kid",
            "display": "Kidneys"
          } ],
          "text": "SOFA Kidneys scoring category"
        },
        "valueCodeableConcept": {
          "coding": [ {
            "system": "https://www.netzwerk-universitaetsmedizin.de/fhir/CodeSystem/sofa-score",
            "code": "kid1",
            "display": "Kidneys SOFA score 1"
          } ],
          "text": "Creatinine (mg/dl) [umol/L] (or urine output) 1.2-1.9 [110-170]"
        }
      }, {
        "code": {
          "coding": [ {
            "system": "https://www.netzwerk-universitaetsmedizin.de/fhir/CodeSystem/sofa-score",
            "code": "cvs",
            "display": "Cardiovascular system"
          } ],
          "text": "SOFA Cardiovascular system scoring category"
        },
        "valueCodeableConcept": {
          "coding": [ {
            "system": "https://www.netzwerk-universitaetsmedizin.de/fhir/CodeSystem/sofa-score",
            "code": "cvs1",
            "display": "Cardiovascular system SOFA score 1"
          } ],
          "text": "Mean arterial pressure (definitions) < 70 mmHg"
        }
      }, {
        "code": {
          "coding": [ {
            "system": "https://www.netzwerk-universitaetsmedizin.de/fhir/CodeSystem/sofa-score",
            "code": "liv",
            "display": "Liver"
          } ],
          "text": "SOFA Liver scoring category"
        },
        "valueCodeableConcept": {
          "coding": [ {
            "system": "https://www.netzwerk-universitaetsmedizin.de/fhir/CodeSystem/sofa-score",
            "code": "liv0",
            "display": "Liver SOFA score 0"
          } ],
          "text": "Bilirubin (mg/dl) [umol/L] < 1.2 [< 20]"
        }
      }, {
        "code": {
          "coding": [ {
            "system": "https://www.netzwerk-universitaetsmedizin.de/fhir/CodeSystem/sofa-score",
            "code": "coa",
            "display": "Coagulation"
          } ],
          "text": "SOFA Coagulation scoring category"
        },
        "valueCodeableConcept": {
          "coding": [ {
            "system": "https://www.netzwerk-universitaetsmedizin.de/fhir/CodeSystem/sofa-score",
            "code": "coa4",
            "display": "Coagulation SOFA score 4"
          } ],
          "text": "Platelets×10^3/ul < 20"
        }
      } ]
    },
    "request": {
      "method": "POST",
      "url": "Observation",
      "ifNoneExist": "identifier=https://mein.krankenhaus.de/fhir/NamingSystem/observationId|6a77b555be140908480fde8238bbdb5af77611bfaba79ce0482ee54078f79671"
    }
  }, {
    "fullUrl": "Observation/e1bdff4f589e2ec3c3163c597248d97f9145faf62e474f0936a9a906a0d9c314",
    "resource": {
      "resourceType": "Observation",
      "meta": {
        "profile": [ "https://www.netzwerk-universitaetsmedizin.de/fhir/StructureDefinition/respiratory-rate" ]
      },
      "identifier": [ {
        "type": {
          "coding": [ {
            "system": "http://terminology.hl7.org/CodeSystem/v2-0203",
            "code": "OBI",
            "display": "Observation Instance Identifier"
          } ]
        },
        "system": "https://mein.krankenhaus.de/fhir/NamingSystem/observationId",
        "value": "71c8c7ed7859a6abc7434e296ed9faeb56b708ca36259978edba2a1a090a78d9",
        "assigner": {
          "reference": "Organization/3a4f3433bce81181bad2d8e0b8fafccf7dc800bc06f29be73dcb38b750a48f9a"
        }
      } ],
      "status": "final",
      "category": [ {
        "coding": [ {
          "system": "http://terminology.hl7.org/CodeSystem/observation-category",
          "code": "vital-signs",
          "display": "Vital Signs"
        } ]
      } ],
      "code": {
        "coding": [ {
          "system": "http://loinc.org",
          "code": "9279-1"
        }, {
          "system": "http://snomed.info/sct",
          "code": "86290005"
        } ],
        "text": "Respiratory rate"
      },
      "subject": {
        "reference": "Patient/92933a3678d1b6e8b1c7f67c4018a24f010d30e88b78083b7267ceaff46e5972"
      },
      "encounter": {
        "reference": "Encounter/932798f2bd43b79c3c7f0cf2ddc4321aab4c0471b2bc62bb49937d2c132a6354"
      },
      "effectiveDateTime": "2020-03-22T20:36:00+00:00",
      "valueQuantity": {
        "value": 117,
        "unit": "per minute",
        "system": "http://unitsofmeasure.org",
        "code": "/min"
      }
    },
    "request": {
      "method": "POST",
      "url": "Observation",
      "ifNoneExist": "identifier=https://mein.krankenhaus.de/fhir/NamingSystem/observationId|e1bdff4f589e2ec3c3163c597248d97f9145faf62e474f0936a9a906a0d9c314"
    }
  }, {
    "fullUrl": "Observation/19d8adfdfc4485918768f00c20874aeae8f4d944ee3b35dc094c776b41f90deb",
    "resource": {
      "resourceType": "Observation",
      "meta": {
        "profile": [ "https://www.netzwerk-universitaetsmedizin.de/fhir/StructureDefinition/blood-pressure" ]
      },
      "identifier": [ {
        "type": {
          "coding": [ {
            "system": "http://terminology.hl7.org/CodeSystem/v2-0203",
            "code": "OBI",
            "display": "Observation Instance Identifier"
          } ]
        },
        "system": "https://mein.krankenhaus.de/fhir/NamingSystem/observationId",
        "value": "78f8075dd30ec458cc5bb58cc27e31c8e5fd6a860292eb4651233e8c4ffb7b5c",
        "assigner": {
          "reference": "Organization/3a4f3433bce81181bad2d8e0b8fafccf7dc800bc06f29be73dcb38b750a48f9a"
        }
      } ],
      "status": "final",
      "category": [ {
        "coding": [ {
          "system": "http://terminology.hl7.org/CodeSystem/observation-category",
          "code": "vital-signs",
          "display": "Vital Signs"
        } ]
      } ],
      "code": {
        "coding": [ {
          "system": "http://loinc.org",
          "code": "85354-9",
          "display": "Blood pressure panel with all children optional"
        }, {
          "system": "http://snomed.info/sct",
          "code": "75367002",
          "display": "Blood pressure (observable entity)"
        } ],
        "text": "Blood pressure"
      },
      "subject": {
        "reference": "Patient/92933a3678d1b6e8b1c7f67c4018a24f010d30e88b78083b7267ceaff46e5972"
      },
      "encounter": {
        "reference": "Encounter/932798f2bd43b79c3c7f0cf2ddc4321aab4c0471b2bc62bb49937d2c132a6354"
      },
      "effectiveDateTime": "2020-03-22T20:36:00+00:00",
      "component": [ {
        "code": {
          "coding": [ {
            "system": "http://loinc.org",
            "code": "8480-6"
          }, {
            "system": "http://snomed.info/sct",
            "code": "271649006"
          } ],
          "text": "Systolic blood pressure"
        },
        "valueQuantity": {
          "value": 204,
          "unit": "mmHg",
          "system": "http://unitsofmeasure.org",
          "code": "mm[Hg]"
        }
      }, {
        "code": {
          "coding": [ {
            "system": "http://loinc.org",
            "code": "8462-4"
          }, {
            "system": "http://snomed.info/sct",
            "code": "271650006"
          } ],
          "text": "Diastolic blood pressure"
        },
        "valueQuantity": {
          "value": 142,
          "unit": "mmHg",
          "system": "http://unitsofmeasure.org",
          "code": "mm[Hg]"
        }
      } ]
    },
    "request": {
      "method": "POST",
      "url": "Observation",
      "ifNoneExist": "identifier=https://mein.krankenhaus.de/fhir/NamingSystem/observationId|19d8adfdfc4485918768f00c20874aeae8f4d944ee3b35dc094c776b41f90deb"
    }
  }, {
    "fullUrl": "Observation/59ef4e3d7212fb9c2a2fe4d1d527568e5756f098231fe33318629b9bd0b89633",
    "resource": {
      "resourceType": "Observation",
      "meta": {
        "profile": [ "https://www.netzwerk-universitaetsmedizin.de/fhir/StructureDefinition/heart-rate" ]
      },
      "identifier": [ {
        "type": {
          "coding": [ {
            "system": "http://terminology.hl7.org/CodeSystem/v2-0203",
            "code": "OBI",
            "display": "Observation Instance Identifier"
          } ]
        },
        "system": "https://mein.krankenhaus.de/fhir/NamingSystem/observationId",
        "value": "5096fe01a8c85940d691518ba0b29699811e24711b36c6d124ec90ee874fcd72",
        "assigner": {
          "reference": "Organization/3a4f3433bce81181bad2d8e0b8fafccf7dc800bc06f29be73dcb38b750a48f9a"
        }
      } ],
      "status": "final",
      "category": [ {
        "coding": [ {
          "system": "http://terminology.hl7.org/CodeSystem/observation-category",
          "code": "vital-signs",
          "display": "Vital Signs"
        } ]
      } ],
      "code": {
        "coding": [ {
          "system": "http://loinc.org",
          "code": "8867-4"
        }, {
          "system": "http://snomed.info/sct",
          "code": "364075005"
        } ],
        "text": "Heart rate"
      },
      "subject": {
        "reference": "Patient/92933a3678d1b6e8b1c7f67c4018a24f010d30e88b78083b7267ceaff46e5972"
      },
      "encounter": {
        "reference": "Encounter/932798f2bd43b79c3c7f0cf2ddc4321aab4c0471b2bc62bb49937d2c132a6354"
      },
      "effectiveDateTime": "2020-03-22T20:36:00+00:00",
      "valueQuantity": {
        "value": 203,
        "unit": "per minute",
        "system": "http://unitsofmeasure.org",
        "code": "/min"
      }
    },
    "request": {
      "method": "POST",
      "url": "Observation",
      "ifNoneExist": "identifier=https://mein.krankenhaus.de/fhir/NamingSystem/observationId|59ef4e3d7212fb9c2a2fe4d1d527568e5756f098231fe33318629b9bd0b89633"
    }
  }, {
    "fullUrl": "Observation/2fc514ab7fbff049f3c30e93aa9a270463344ef4cb24a2301e339ebcb9643aeb",
    "resource": {
      "resourceType": "Observation",
      "meta": {
        "profile": [ "https://www.netzwerk-universitaetsmedizin.de/fhir/StructureDefinition/body-temperature" ]
      },
      "identifier": [ {
        "type": {
          "coding": [ {
            "system": "http://terminology.hl7.org/CodeSystem/v2-0203",
            "code": "OBI",
            "display": "Observation Instance Identifier"
          } ]
        },
        "system": "https://mein.krankenhaus.de/fhir/NamingSystem/observationId",
        "value": "edcab21d28c0606d8f695dc65cf7389774935b2f9d9206bdc5d79beb39b23417",
        "assigner": {
          "reference": "Organization/3a4f3433bce81181bad2d8e0b8fafccf7dc800bc06f29be73dcb38b750a48f9a"
        }
      } ],
      "status": "final",
      "category": [ {
        "coding": [ {
          "system": "http://terminology.hl7.org/CodeSystem/observation-category",
          "code": "vital-signs",
          "display": "Vital Signs"
        } ]
      } ],
      "code": {
        "coding": [ {
          "system": "http://loinc.org",
          "code": "8310-5"
        }, {
          "system": "http://snomed.info/sct",
          "code": "386725007"
        } ],
        "text": "Body temperature"
      },
      "subject": {
        "reference": "Patient/92933a3678d1b6e8b1c7f67c4018a24f010d30e88b78083b7267ceaff46e5972"
      },
      "encounter": {
        "reference": "Encounter/932798f2bd43b79c3c7f0cf2ddc4321aab4c0471b2bc62bb49937d2c132a6354"
      },
      "effectiveDateTime": "2020-03-22T20:36:00+00:00",
      "valueQuantity": {
        "value": 31.41023300930002,
        "unit": "°C",
        "system": "http://unitsofmeasure.org",
        "code": "Cel"
      }
    },
    "request": {
      "method": "POST",
      "url": "Observation",
      "ifNoneExist": "identifier=https://mein.krankenhaus.de/fhir/NamingSystem/observationId|2fc514ab7fbff049f3c30e93aa9a270463344ef4cb24a2301e339ebcb9643aeb"
    }
  }, {
    "fullUrl": "Observation/b020c688fc9f779a90dd155dc395d134def9018c92c15e88d8c4d259d8e40680",
    "resource": {
      "resourceType": "Observation",
      "meta": {
        "profile": [ "https://www.netzwerk-universitaetsmedizin.de/fhir/StructureDefinition/oxygen-saturation" ]
      },
      "identifier": [ {
        "type": {
          "coding": [ {
            "system": "http://terminology.hl7.org/CodeSystem/v2-0203",
            "code": "OBI",
            "display": "Observation Instance Identifier"
          } ]
        },
        "system": "https://mein.krankenhaus.de/fhir/NamingSystem/observationId",
        "value": "a9f0931d9f1b7750b21173d3a33f649d6699a9aa2f73d22bcdc2d14afeab0511",
        "assigner": {
          "reference": "Organization/3a4f3433bce81181bad2d8e0b8fafccf7dc800bc06f29be73dcb38b750a48f9a"
        }
      } ],
      "status": "final",
      "category": [ {
        "coding": [ {
          "system": "http://terminology.hl7.org/CodeSystem/observation-category",
          "code": "vital-signs",
          "display": "Vital Signs"
        } ]
      } ],
      "code": {
        "coding": [ {
          "system": "http://loinc.org",
          "code": "2708-6"
        }, {
          "system": "http://loinc.org",
          "code": "59408-5"
        }, {
          "system": "http://loinc.org",
          "code": "20564-1"
        }, {
          "system": "http://snomed.info/sct",
          "code": "431314004"
        } ],
        "text": "Oxygen saturation in Arterial blood"
      },
      "subject": {
        "reference": "Patient/92933a3678d1b6e8b1c7f67c4018a24f010d30e88b78083b7267ceaff46e5972"
      },
      "encounter": {
        "reference": "Encounter/932798f2bd43b79c3c7f0cf2ddc4321aab4c0471b2bc62bb49937d2c132a6354"
      },
      "effectiveDateTime": "2020-03-22T20:36:00+00:00",
      "valueQuantity": {
        "value": 31,
        "unit": "%",
        "system": "http://unitsofmeasure.org",
        "code": "%"
      }
    },
    "request": {
      "method": "POST",
      "url": "Observation",
      "ifNoneExist": "identifier=https://mein.krankenhaus.de/fhir/NamingSystem/observationId|b020c688fc9f779a90dd155dc395d134def9018c92c15e88d8c4d259d8e40680"
    }
  }, {
    "fullUrl": "Observation/3a36fcfc0b8f3bda3cce8aa31820f93a279c9ca8cb4b13cd4ed7afea2118a5e6",
    "resource": {
      "resourceType": "Observation",
      "meta": {
        "profile": [ "https://www.netzwerk-universitaetsmedizin.de/fhir/StructureDefinition/oxygen-partial-pressure" ]
      },
      "identifier": [ {
        "type": {
          "coding": [ {
            "system": "http://terminology.hl7.org/CodeSystem/v2-0203",
            "code": "OBI",
            "display": "Observation Instance Identifier"
          } ]
        },
        "system": "https://mein.krankenhaus.de/fhir/NamingSystem/observationId",
        "value": "053a3482c9450b61942c443884182a48007653863e229781338e60104632276b",
        "assigner": {
          "reference": "Organization/3a4f3433bce81181bad2d8e0b8fafccf7dc800bc06f29be73dcb38b750a48f9a"
        }
      } ],
      "status": "final",
      "category": [ {
        "coding": [ {
          "system": "http://terminology.hl7.org/CodeSystem/observation-category",
          "code": "laboratory",
          "display": "Laboratory"
        }, {
          "system": "http://loinc.org",
          "code": "26436-6",
          "display": "Laboratory studies (set)"
        }, {
          "system": "http://loinc.org",
          "code": "18767-4",
          "display": "Blood gas studies (set)"
        } ]
      } ],
      "code": {
        "coding": [ {
          "system": "http://loinc.org",
          "code": "11557-8"
        } ],
        "text": "Oxygen [Partial pressure] in blood"
      },
      "subject": {
        "reference": "Patient/92933a3678d1b6e8b1c7f67c4018a24f010d30e88b78083b7267ceaff46e5972"
      },
      "encounter": {
        "reference": "Encounter/932798f2bd43b79c3c7f0cf2ddc4321aab4c0471b2bc62bb49937d2c132a6354"
      },
      "effectiveDateTime": "2020-07-26T12:27:00+00:00",
      "valueQuantity": {
        "value": 200,
        "unit": "mmHg",
        "system": "http://unitsofmeasure.org",
        "code": "mm[Hg]"
      }
    },
    "request": {
      "method": "POST",
      "url": "Observation",
      "ifNoneExist": "identifier=https://mein.krankenhaus.de/fhir/NamingSystem/observationId|3a36fcfc0b8f3bda3cce8aa31820f93a279c9ca8cb4b13cd4ed7afea2118a5e6"
    }
  }, {
    "fullUrl": "Observation/8233ffcadf79d7188bc3e434983c04ba7828308f3896bde089e2c88270509377",
    "resource": {
      "resourceType": "Observation",
      "meta": {
        "profile": [ "https://www.netzwerk-universitaetsmedizin.de/fhir/StructureDefinition/inhaled-oxygen-concentration" ]
      },
      "identifier": [ {
        "type": {
          "coding": [ {
            "system": "http://terminology.hl7.org/CodeSystem/v2-0203",
            "code": "OBI",
            "display": "Observation Instance Identifier"
          } ]
        },
        "system": "https://mein.krankenhaus.de/fhir/NamingSystem/observationId",
        "value": "4967c7a1e81e97787dfbe7d23d8f8727ef5affc2f055eb2355ee68725fc4dce9",
        "assigner": {
          "reference": "Organization/3a4f3433bce81181bad2d8e0b8fafccf7dc800bc06f29be73dcb38b750a48f9a"
        }
      } ],
      "status": "final",
      "category": [ {
        "coding": [ {
          "system": "http://terminology.hl7.org/CodeSystem/observation-category",
          "code": "laboratory",
          "display": "Laboratory"
        }, {
          "system": "http://loinc.org",
          "code": "26436-6",
          "display": "Laboratory studies (set)"
        }, {
          "system": "http://loinc.org",
          "code": "18767-4",
          "display": "Blood gas studies (set)"
        } ]
      } ],
      "code": {
        "coding": [ {
          "system": "http://loinc.org",
          "code": "3150-0"
        }, {
          "system": "http://snomed.info/sct",
          "code": "250774007"
        } ],
        "text": "Oxygen [Partial pressure] in blood"
      },
      "subject": {
        "reference": "Patient/92933a3678d1b6e8b1c7f67c4018a24f010d30e88b78083b7267ceaff46e5972"
      },
      "encounter": {
        "reference": "Encounter/932798f2bd43b79c3c7f0cf2ddc4321aab4c0471b2bc62bb49937d2c132a6354"
      },
      "effectiveDateTime": "2020-07-26T12:27:00+00:00",
      "valueQuantity": {
        "value": 58.72919946279641,
        "unit": "%",
        "system": "http://unitsofmeasure.org",
        "code": "%"
      }
    },
    "request": {
      "method": "POST",
      "url": "Observation",
      "ifNoneExist": "identifier=https://mein.krankenhaus.de/fhir/NamingSystem/observationId|8233ffcadf79d7188bc3e434983c04ba7828308f3896bde089e2c88270509377"
    }
  }, {
    "fullUrl": "Observation/9be886d873c1d97883309c97d06eca50f76630847c1fffcc10a3c324326f4667",
    "resource": {
      "resourceType": "Observation",
      "meta": {
        "profile": [ "https://www.netzwerk-universitaetsmedizin.de/fhir/StructureDefinition/pH" ]
      },
      "identifier": [ {
        "type": {
          "coding": [ {
            "system": "http://terminology.hl7.org/CodeSystem/v2-0203",
            "code": "OBI",
            "display": "Observation Instance Identifier"
          } ]
        },
        "system": "https://mein.krankenhaus.de/fhir/NamingSystem/observationId",
        "value": "6586c04d97578a94b841f20b6557feb92b0bd642811498e82bb10c3c834d8f31",
        "assigner": {
          "reference": "Organization/3a4f3433bce81181bad2d8e0b8fafccf7dc800bc06f29be73dcb38b750a48f9a"
        }
      } ],
      "status": "final",
      "category": [ {
        "coding": [ {
          "system": "http://terminology.hl7.org/CodeSystem/observation-category",
          "code": "laboratory",
          "display": "Laboratory"
        }, {
          "system": "http://loinc.org",
          "code": "26436-6",
          "display": "Laboratory studies (set)"
        }, {
          "system": "http://loinc.org",
          "code": "18767-4",
          "display": "Blood gas studies (set)"
        } ]
      } ],
      "code": {
        "coding": [ {
          "system": "http://loinc.org",
          "code": "11558-4"
        } ],
        "text": "pH of Blood"
      },
      "subject": {
        "reference": "Patient/92933a3678d1b6e8b1c7f67c4018a24f010d30e88b78083b7267ceaff46e5972"
      },
      "encounter": {
        "reference": "Encounter/932798f2bd43b79c3c7f0cf2ddc4321aab4c0471b2bc62bb49937d2c132a6354"
      },
      "effectiveDateTime": "2020-07-26T12:27:00+00:00",
      "valueQuantity": {
        "value": 8.930458620050835,
        "unit": "pH",
        "system": "http://unitsofmeasure.org",
        "code": "[pH]"
      }
    },
    "request": {
      "method": "POST",
      "url": "Observation",
      "ifNoneExist": "identifier=https://mein.krankenhaus.de/fhir/NamingSystem/observationId|9be886d873c1d97883309c97d06eca50f76630847c1fffcc10a3c324326f4667"
    }
  }, {
    "fullUrl": "Observation/efe1a223a50c10279d73e89f4b0135159e93d4c1fd4a1628b028dea691442b81",
    "resource": {
      "resourceType": "Observation",
      "meta": {
        "profile": [ "https://www.netzwerk-universitaetsmedizin.de/fhir/StructureDefinition/sofa-score" ]
      },
      "identifier": [ {
        "type": {
          "coding": [ {
            "system": "http://terminology.hl7.org/CodeSystem/v2-0203",
            "code": "OBI",
            "display": "Observation Instance Identifier"
          } ]
        },
        "system": "https://mein.krankenhaus.de/fhir/NamingSystem/observationId",
        "value": "29dd583bbb7ab713c7f852afafcae578bb65747df529b86e796e444e204ddb87",
        "assigner": {
          "reference": "Organization/3a4f3433bce81181bad2d8e0b8fafccf7dc800bc06f29be73dcb38b750a48f9a"
        }
      } ],
      "status": "final",
      "category": [ {
        "coding": [ {
          "system": "http://terminology.hl7.org/CodeSystem/observation-category",
          "code": "survey",
          "display": "Survey"
        } ]
      } ],
      "code": {
        "coding": [ {
          "system": "https://www.netzwerk-universitaetsmedizin.de/fhir/CodeSystem/ecrf-parameter-codes",
          "code": "06",
          "display": "SOFA-Score"
        } ],
        "text": "Sepsis-related organ failure assessment score"
      },
      "subject": {
        "reference": "Patient/92933a3678d1b6e8b1c7f67c4018a24f010d30e88b78083b7267ceaff46e5972"
      },
      "encounter": {
        "reference": "Encounter/932798f2bd43b79c3c7f0cf2ddc4321aab4c0471b2bc62bb49937d2c132a6354"
      },
      "effectiveDateTime": "2020-07-26T12:27:00+00:00",
      "valueInteger": 18,
      "component": [ {
        "code": {
          "coding": [ {
            "system": "https://www.netzwerk-universitaetsmedizin.de/fhir/CodeSystem/sofa-score",
            "code": "resp",
            "display": "Respiratory system"
          } ],
          "text": "SOFA Respiratory system scoring category"
        },
        "valueCodeableConcept": {
          "coding": [ {
            "system": "https://www.netzwerk-universitaetsmedizin.de/fhir/CodeSystem/sofa-score",
            "code": "resp4",
            "display": "Respiratory system SOFA score 4"
          } ],
          "text": "PaO2/FiO2 [mmHg (kPa)] < 100 (13.3) and mechanically ventilated"
        }
      }, {
        "code": {
          "coding": [ {
            "system": "https://www.netzwerk-universitaetsmedizin.de/fhir/CodeSystem/sofa-score",
            "code": "ns",
            "display": "Nervous system"
          } ],
          "text": "SOFA Nervous system scoring category"
        },
        "valueCodeableConcept": {
          "coding": [ {
            "system": "https://www.netzwerk-universitaetsmedizin.de/fhir/CodeSystem/sofa-score",
            "code": "ns4",
            "display": "Nervous system SOFA score 4"
          } ],
          "text": "Glasgow Coma Scale (GCS) < 6"
        }
      }, {
        "code": {
          "coding": [ {
            "system": "https://www.netzwerk-universitaetsmedizin.de/fhir/CodeSystem/sofa-score",
            "code": "kid",
            "display": "Kidneys"
          } ],
          "text": "SOFA Kidneys scoring category"
        },
        "valueCodeableConcept": {
          "coding": [ {
            "system": "https://www.netzwerk-universitaetsmedizin.de/fhir/CodeSystem/sofa-score",
            "code": "kid4",
            "display": "Kidneys SOFA score 4"
          } ],
          "text": "Creatinine (mg/dl) [umol/L] (or urine output) > 5.0 [> 440] (or < 200 ml/d)"
        }
      }, {
        "code": {
          "coding": [ {
            "system": "https://www.netzwerk-universitaetsmedizin.de/fhir/CodeSystem/sofa-score",
            "code": "cvs",
            "display": "Cardiovascular system"
          } ],
          "text": "SOFA Cardiovascular system scoring category"
        },
        "valueCodeableConcept": {
          "coding": [ {
            "system": "https://www.netzwerk-universitaetsmedizin.de/fhir/CodeSystem/sofa-score",
            "code": "cvs4",
            "display": "Cardiovascular system SOFA score 4"
          } ],
          "text": "Administration of dopamine > 15 ug/kg/min OR epinephrine > 0.1 ug/kg/min OR norepinephrine > 0.1 ug/kg/min"
        }
      }, {
        "code": {
          "coding": [ {
            "system": "https://www.netzwerk-universitaetsmedizin.de/fhir/CodeSystem/sofa-score",
            "code": "liv",
            "display": "Liver"
          } ],
          "text": "SOFA Liver scoring category"
        },
        "valueCodeableConcept": {
          "coding": [ {
            "system": "https://www.netzwerk-universitaetsmedizin.de/fhir/CodeSystem/sofa-score",
            "code": "liv1",
            "display": "Liver SOFA score 1"
          } ],
          "text": "Bilirubin (mg/dl) [umol/L] 1.2-1.9 [20-32]"
        }
      }, {
        "code": {
          "coding": [ {
            "system": "https://www.netzwerk-universitaetsmedizin.de/fhir/CodeSystem/sofa-score",
            "code": "coa",
            "display": "Coagulation"
          } ],
          "text": "SOFA Coagulation scoring category"
        },
        "valueCodeableConcept": {
          "coding": [ {
            "system": "https://www.netzwerk-universitaetsmedizin.de/fhir/CodeSystem/sofa-score",
            "code": "coa1",
            "display": "Coagulation SOFA score 1"
          } ],
          "text": "Platelets×10^3/ul < 150"
        }
      } ]
    },
    "request": {
      "method": "POST",
      "url": "Observation",
      "ifNoneExist": "identifier=https://mein.krankenhaus.de/fhir/NamingSystem/observationId|efe1a223a50c10279d73e89f4b0135159e93d4c1fd4a1628b028dea691442b81"
    }
  }, {
    "fullUrl": "Observation/23e6532bd263a9de2dee203b455e3ea4bfc391edaa19e2a4984bd0e2d879cd41",
    "resource": {
      "resourceType": "Observation",
      "meta": {
        "profile": [ "https://www.netzwerk-universitaetsmedizin.de/fhir/StructureDefinition/respiratory-rate" ]
      },
      "identifier": [ {
        "type": {
          "coding": [ {
            "system": "http://terminology.hl7.org/CodeSystem/v2-0203",
            "code": "OBI",
            "display": "Observation Instance Identifier"
          } ]
        },
        "system": "https://mein.krankenhaus.de/fhir/NamingSystem/observationId",
        "value": "1ac9c8fa363a6a176e325b8e36e4f2ab7e1cd6f9fcdd828b11873e973a59a8c0",
        "assigner": {
          "reference": "Organization/3a4f3433bce81181bad2d8e0b8fafccf7dc800bc06f29be73dcb38b750a48f9a"
        }
      } ],
      "status": "final",
      "category": [ {
        "coding": [ {
          "system": "http://terminology.hl7.org/CodeSystem/observation-category",
          "code": "vital-signs",
          "display": "Vital Signs"
        } ]
      } ],
      "code": {
        "coding": [ {
          "system": "http://loinc.org",
          "code": "9279-1"
        }, {
          "system": "http://snomed.info/sct",
          "code": "86290005"
        } ],
        "text": "Respiratory rate"
      },
      "subject": {
        "reference": "Patient/92933a3678d1b6e8b1c7f67c4018a24f010d30e88b78083b7267ceaff46e5972"
      },
      "encounter": {
        "reference": "Encounter/932798f2bd43b79c3c7f0cf2ddc4321aab4c0471b2bc62bb49937d2c132a6354"
      },
      "effectiveDateTime": "2020-07-26T12:27:00+00:00",
      "valueQuantity": {
        "value": 195,
        "unit": "per minute",
        "system": "http://unitsofmeasure.org",
        "code": "/min"
      }
    },
    "request": {
      "method": "POST",
      "url": "Observation",
      "ifNoneExist": "identifier=https://mein.krankenhaus.de/fhir/NamingSystem/observationId|23e6532bd263a9de2dee203b455e3ea4bfc391edaa19e2a4984bd0e2d879cd41"
    }
  }, {
    "fullUrl": "Observation/e1c38710bbe3d37ff1fa4a20531bd9f55d75181d36daaaac9139568aad85251f",
    "resource": {
      "resourceType": "Observation",
      "meta": {
        "profile": [ "https://www.netzwerk-universitaetsmedizin.de/fhir/StructureDefinition/blood-pressure" ]
      },
      "identifier": [ {
        "type": {
          "coding": [ {
            "system": "http://terminology.hl7.org/CodeSystem/v2-0203",
            "code": "OBI",
            "display": "Observation Instance Identifier"
          } ]
        },
        "system": "https://mein.krankenhaus.de/fhir/NamingSystem/observationId",
        "value": "2d92cb5fb6517a7e52cc8df9fa7a5883b77ab58b5b22fa2644598b2730e16318",
        "assigner": {
          "reference": "Organization/3a4f3433bce81181bad2d8e0b8fafccf7dc800bc06f29be73dcb38b750a48f9a"
        }
      } ],
      "status": "final",
      "category": [ {
        "coding": [ {
          "system": "http://terminology.hl7.org/CodeSystem/observation-category",
          "code": "vital-signs",
          "display": "Vital Signs"
        } ]
      } ],
      "code": {
        "coding": [ {
          "system": "http://loinc.org",
          "code": "85354-9",
          "display": "Blood pressure panel with all children optional"
        }, {
          "system": "http://snomed.info/sct",
          "code": "75367002",
          "display": "Blood pressure (observable entity)"
        } ],
        "text": "Blood pressure"
      },
      "subject": {
        "reference": "Patient/92933a3678d1b6e8b1c7f67c4018a24f010d30e88b78083b7267ceaff46e5972"
      },
      "encounter": {
        "reference": "Encounter/932798f2bd43b79c3c7f0cf2ddc4321aab4c0471b2bc62bb49937d2c132a6354"
      },
      "effectiveDateTime": "2020-07-26T12:27:00+00:00",
      "component": [ {
        "code": {
          "coding": [ {
            "system": "http://loinc.org",
            "code": "8480-6"
          }, {
            "system": "http://snomed.info/sct",
            "code": "271649006"
          } ],
          "text": "Systolic blood pressure"
        },
        "valueQuantity": {
          "value": 163,
          "unit": "mmHg",
          "system": "http://unitsofmeasure.org",
          "code": "mm[Hg]"
        }
      }, {
        "code": {
          "coding": [ {
            "system": "http://loinc.org",
            "code": "8462-4"
          }, {
            "system": "http://snomed.info/sct",
            "code": "271650006"
          } ],
          "text": "Diastolic blood pressure"
        },
        "valueQuantity": {
          "value": 27,
          "unit": "mmHg",
          "system": "http://unitsofmeasure.org",
          "code": "mm[Hg]"
        }
      } ]
    },
    "request": {
      "method": "POST",
      "url": "Observation",
      "ifNoneExist": "identifier=https://mein.krankenhaus.de/fhir/NamingSystem/observationId|e1c38710bbe3d37ff1fa4a20531bd9f55d75181d36daaaac9139568aad85251f"
    }
  }, {
    "fullUrl": "Observation/a28c80a6f62f934956224e5b980f5d3b4462011c1c93ac3d46f48e7afb3e9871",
    "resource": {
      "resourceType": "Observation",
      "meta": {
        "profile": [ "https://www.netzwerk-universitaetsmedizin.de/fhir/StructureDefinition/heart-rate" ]
      },
      "identifier": [ {
        "type": {
          "coding": [ {
            "system": "http://terminology.hl7.org/CodeSystem/v2-0203",
            "code": "OBI",
            "display": "Observation Instance Identifier"
          } ]
        },
        "system": "https://mein.krankenhaus.de/fhir/NamingSystem/observationId",
        "value": "21733d2b0c111f33c8cfc2a72a3598c898262073df3781d9b4499725f9971c2d",
        "assigner": {
          "reference": "Organization/3a4f3433bce81181bad2d8e0b8fafccf7dc800bc06f29be73dcb38b750a48f9a"
        }
      } ],
      "status": "final",
      "category": [ {
        "coding": [ {
          "system": "http://terminology.hl7.org/CodeSystem/observation-category",
          "code": "vital-signs",
          "display": "Vital Signs"
        } ]
      } ],
      "code": {
        "coding": [ {
          "system": "http://loinc.org",
          "code": "8867-4"
        }, {
          "system": "http://snomed.info/sct",
          "code": "364075005"
        } ],
        "text": "Heart rate"
      },
      "subject": {
        "reference": "Patient/92933a3678d1b6e8b1c7f67c4018a24f010d30e88b78083b7267ceaff46e5972"
      },
      "encounter": {
        "reference": "Encounter/932798f2bd43b79c3c7f0cf2ddc4321aab4c0471b2bc62bb49937d2c132a6354"
      },
      "effectiveDateTime": "2020-07-26T12:27:00+00:00",
      "valueQuantity": {
        "value": 8,
        "unit": "per minute",
        "system": "http://unitsofmeasure.org",
        "code": "/min"
      }
    },
    "request": {
      "method": "POST",
      "url": "Observation",
      "ifNoneExist": "identifier=https://mein.krankenhaus.de/fhir/NamingSystem/observationId|a28c80a6f62f934956224e5b980f5d3b4462011c1c93ac3d46f48e7afb3e9871"
    }
  }, {
    "fullUrl": "Observation/3f72377fd69678a68b60a480a6493ad5dcbe930b1c5dc46b7be6eb36d327b6f4",
    "resource": {
      "resourceType": "Observation",
      "meta": {
        "profile": [ "https://www.netzwerk-universitaetsmedizin.de/fhir/StructureDefinition/body-temperature" ]
      },
      "identifier": [ {
        "type": {
          "coding": [ {
            "system": "http://terminology.hl7.org/CodeSystem/v2-0203",
            "code": "OBI",
            "display": "Observation Instance Identifier"
          } ]
        },
        "system": "https://mein.krankenhaus.de/fhir/NamingSystem/observationId",
        "value": "072494637c5faa2fe0dac67dac09768ed0bb460ca106f750a4adad5cbbe4642e",
        "assigner": {
          "reference": "Organization/3a4f3433bce81181bad2d8e0b8fafccf7dc800bc06f29be73dcb38b750a48f9a"
        }
      } ],
      "status": "final",
      "category": [ {
        "coding": [ {
          "system": "http://terminology.hl7.org/CodeSystem/observation-category",
          "code": "vital-signs",
          "display": "Vital Signs"
        } ]
      } ],
      "code": {
        "coding": [ {
          "system": "http://loinc.org",
          "code": "8310-5"
        }, {
          "system": "http://snomed.info/sct",
          "code": "386725007"
        } ],
        "text": "Body temperature"
      },
      "subject": {
        "reference": "Patient/92933a3678d1b6e8b1c7f67c4018a24f010d30e88b78083b7267ceaff46e5972"
      },
      "encounter": {
        "reference": "Encounter/932798f2bd43b79c3c7f0cf2ddc4321aab4c0471b2bc62bb49937d2c132a6354"
      },
      "effectiveDateTime": "2020-07-26T12:27:00+00:00",
      "valueQuantity": {
        "value": 28.08992477160151,
        "unit": "°C",
        "system": "http://unitsofmeasure.org",
        "code": "Cel"
      }
    },
    "request": {
      "method": "POST",
      "url": "Observation",
      "ifNoneExist": "identifier=https://mein.krankenhaus.de/fhir/NamingSystem/observationId|3f72377fd69678a68b60a480a6493ad5dcbe930b1c5dc46b7be6eb36d327b6f4"
    }
  }, {
    "fullUrl": "Observation/b31fa01fe17f0c053f073feeb8c71175f117d144064f4c730867b7a2a1ca7de8",
    "resource": {
      "resourceType": "Observation",
      "meta": {
        "profile": [ "https://www.netzwerk-universitaetsmedizin.de/fhir/StructureDefinition/oxygen-saturation" ]
      },
      "identifier": [ {
        "type": {
          "coding": [ {
            "system": "http://terminology.hl7.org/CodeSystem/v2-0203",
            "code": "OBI",
            "display": "Observation Instance Identifier"
          } ]
        },
        "system": "https://mein.krankenhaus.de/fhir/NamingSystem/observationId",
        "value": "dc877b95f63450d1a252c9f4a48f61108aebc64ae04af6a6aa0be6149f316e80",
        "assigner": {
          "reference": "Organization/3a4f3433bce81181bad2d8e0b8fafccf7dc800bc06f29be73dcb38b750a48f9a"
        }
      } ],
      "status": "final",
      "category": [ {
        "coding": [ {
          "system": "http://terminology.hl7.org/CodeSystem/observation-category",
          "code": "vital-signs",
          "display": "Vital Signs"
        } ]
      } ],
      "code": {
        "coding": [ {
          "system": "http://loinc.org",
          "code": "2708-6"
        }, {
          "system": "http://loinc.org",
          "code": "59408-5"
        }, {
          "system": "http://loinc.org",
          "code": "20564-1"
        }, {
          "system": "http://snomed.info/sct",
          "code": "431314004"
        } ],
        "text": "Oxygen saturation in Arterial blood"
      },
      "subject": {
        "reference": "Patient/92933a3678d1b6e8b1c7f67c4018a24f010d30e88b78083b7267ceaff46e5972"
      },
      "encounter": {
        "reference": "Encounter/932798f2bd43b79c3c7f0cf2ddc4321aab4c0471b2bc62bb49937d2c132a6354"
      },
      "effectiveDateTime": "2020-07-26T12:27:00+00:00",
      "valueQuantity": {
        "value": 51,
        "unit": "%",
        "system": "http://unitsofmeasure.org",
        "code": "%"
      }
    },
    "request": {
      "method": "POST",
      "url": "Observation",
      "ifNoneExist": "identifier=https://mein.krankenhaus.de/fhir/NamingSystem/observationId|b31fa01fe17f0c053f073feeb8c71175f117d144064f4c730867b7a2a1ca7de8"
    }
  }, {
    "fullUrl": "Observation/38ff7ccc70ac3ab4125eaefdbd12d1e02f09e6f665f83f5a19b677435755ea3a",
    "resource": {
      "resourceType": "Observation",
      "meta": {
        "profile": [ "https://www.netzwerk-universitaetsmedizin.de/fhir/StructureDefinition/study-inclusion-covid-19" ]
      },
      "identifier": [ {
        "type": {
          "coding": [ {
            "system": "http://terminology.hl7.org/CodeSystem/v2-0203",
            "code": "OBI",
            "display": "Observation Instance Identifier"
          } ]
        },
        "system": "https://mein.krankenhaus.de/fhir/NamingSystem/observationId",
        "value": "d3e9e6fc332bab1e2aea496839df7b1117b57bab6c91d7ad8c2d34d53d2d90ca",
        "assigner": {
          "reference": "Organization/3a4f3433bce81181bad2d8e0b8fafccf7dc800bc06f29be73dcb38b750a48f9a"
        }
      } ],
      "status": "final",
      "category": [ {
        "coding": [ {
          "system": "http://terminology.hl7.org/CodeSystem/observation-category",
          "code": "survey",
          "display": "Survey"
        } ]
      } ],
      "code": {
        "coding": [ {
          "system": "https://www.netzwerk-universitaetsmedizin.de/fhir/CodeSystem/ecrf-parameter-codes",
          "code": "02",
          "display": "Study inclusion due to Covid-19"
        } ],
        "text": "Confirmed Covid-19 diagnosis as main reason for enrolment in the study"
      },
      "subject": {
        "reference": "Patient/92933a3678d1b6e8b1c7f67c4018a24f010d30e88b78083b7267ceaff46e5972"
      },
      "_effectiveDateTime": {
        "extension": [ {
          "url": "http://hl7.org/fhir/StructureDefinition/data-absent-reason",
          "valueCode": "unknown"
        } ]
      },
      "valueCodeableConcept": {
        "coding": [ {
          "system": "http://snomed.info/sct",
          "code": "373066001"
        } ]
      }
    },
    "request": {
      "method": "POST",
      "url": "Observation",
      "ifNoneExist": "identifier=https://mein.krankenhaus.de/fhir/NamingSystem/observationId|38ff7ccc70ac3ab4125eaefdbd12d1e02f09e6f665f83f5a19b677435755ea3a"
    }
  }, {
    "fullUrl": "Observation/6f3e2195df9c96fc39090340c8bb3cd507b9b54a80aad4af698bd4be3cefdfa4",
    "resource": {
      "resourceType": "Observation",
      "meta": {
        "profile": [ "https://www.netzwerk-universitaetsmedizin.de/fhir/StructureDefinition/interventional-clinical-trial-participation" ]
      },
      "identifier": [ {
        "type": {
          "coding": [ {
            "system": "http://terminology.hl7.org/CodeSystem/v2-0203",
            "code": "OBI",
            "display": "Observation Instance Identifier"
          } ]
        },
        "system": "https://mein.krankenhaus.de/fhir/NamingSystem/observationId",
        "value": "a78428ebd94b3a9e128411ea27941ac3681a0b6900add755d3728d3857d84f97",
        "assigner": {
          "reference": "Organization/3a4f3433bce81181bad2d8e0b8fafccf7dc800bc06f29be73dcb38b750a48f9a"
        }
      } ],
      "status": "final",
      "category": [ {
        "coding": [ {
          "system": "http://terminology.hl7.org/CodeSystem/observation-category",
          "code": "survey",
          "display": "Survey"
        } ]
      } ],
      "code": {
        "coding": [ {
          "system": "https://www.netzwerk-universitaetsmedizin.de/fhir/CodeSystem/ecrf-parameter-codes",
          "code": "03",
          "display": "Participation in interventional clinical trials"
        } ],
        "text": "Has the patient participated in one or more interventional clinical trials?"
      },
      "subject": {
        "reference": "Patient/92933a3678d1b6e8b1c7f67c4018a24f010d30e88b78083b7267ceaff46e5972"
      },
      "_effectiveDateTime": {
        "extension": [ {
          "url": "http://hl7.org/fhir/StructureDefinition/data-absent-reason",
          "valueCode": "unknown"
        } ]
      },
      "valueCodeableConcept": {
        "coding": [ {
          "system": "http://snomed.info/sct",
          "code": "373067005"
        } ]
      }
    },
    "request": {
      "method": "POST",
      "url": "Observation",
      "ifNoneExist": "identifier=https://mein.krankenhaus.de/fhir/NamingSystem/observationId|6f3e2195df9c96fc39090340c8bb3cd507b9b54a80aad4af698bd4be3cefdfa4"
    }
  } ]
}